,timestamp,foreperiod_start,foreperiod_end,response_received,subject,trial,test,requested_foreperiod,actual_foreperiod,response_time,note,tag,garbage_collection
0,2016-11-06 15:58:13,57982935,57986553,57986889,1,0,80,3607,3618,336,,,False
1,2016-11-06 15:58:18,57987896,57993327,57993584,1,1,80,5420,5431,257,,,False
2,2016-11-06 15:58:25,57994609,58004517,58005559,1,2,80,9826,9908,1042,minor_lapse,,False
3,2016-11-06 15:58:37,58006604,58011373,58011685,1,3,80,4760,4769,312,,,False
4,2016-11-06 15:58:43,58012704,58022088,58022437,1,4,80,9336,9384,349,,,False
5,2016-11-06 15:58:54,58023467,58026686,58026985,1,5,80,3207,3219,299,,,False
6,2016-11-06 15:58:58,58028001,58034358,58034721,1,6,80,6300,6357,363,,,False
7,2016-11-06 15:59:06,58035741,58042665,58043051,1,7,80,6886,6924,386,,,False
8,2016-11-06 15:59:15,58044064,58051198,58051532,1,8,80,7097,7134,334,,,False
9,2016-11-06 15:59:23,58052551,0,58054653,1,9,80,3145,0,-1043,false_start,,False
10,2016-11-06 15:59:26,58055657,58058562,58059119,1,10,80,2884,2905,557,minor_lapse,,False
11,2016-11-06 15:59:31,58060130,58065246,58065536,1,11,80,5027,5116,290,,,False
12,2016-11-06 15:59:37,58066591,58075424,58075735,1,12,80,8815,8833,311,,,False
13,2016-11-06 15:59:47,58076752,58082922,58083234,1,13,80,6154,6170,312,,,False
14,2016-11-06 15:59:55,58084259,58086467,58087041,1,14,80,2148,2208,574,minor_lapse,,False
15,2016-11-06 15:59:59,58088049,58097986,58098347,1,15,80,9893,9937,361,,,False
16,2016-11-06 16:00:10,58099359,58108729,58109024,1,16,80,9294,9370,295,,,False
17,2016-11-06 16:00:21,58110041,58116720,58117001,1,17,80,6663,6679,281,,,False
18,2016-11-06 16:00:29,58118069,58121020,58121439,1,18,80,2938,2951,419,,,False
19,2016-11-06 16:00:33,58122456,58129989,58130393,1,19,80,7516,7533,404,,,False
20,2016-11-06 16:00:42,58131417,58136573,58137149,1,20,80,5141,5156,576,minor_lapse,,False
21,2016-11-06 16:00:49,58138161,58142253,58142542,1,21,80,4079,4092,289,,,False
22,2016-11-06 16:00:54,58143562,58146860,58147242,1,22,80,3256,3298,382,,,False
23,2016-11-06 16:00:59,58148261,58158093,58158391,1,23,80,9767,9832,298,,,False
24,2016-11-06 16:01:10,58159407,58168485,58168770,1,24,80,9063,9078,285,,,False
25,2016-11-06 16:01:20,58169790,58177776,58178035,1,25,80,7945,7986,259,,,False
26,2016-11-06 16:01:30,58179050,58181147,58181489,1,26,80,2085,2097,342,,,False
27,2016-11-06 16:01:33,58182513,58192149,58192469,1,27,80,9619,9636,320,,,False
28,2016-11-06 16:01:44,58193493,58199906,58200208,1,28,80,6394,6413,302,,,False
29,2016-11-06 16:01:52,58201218,58206549,58206957,1,29,80,5252,5331,408,,,False
30,2016-11-06 16:01:58,58207997,58215464,58215794,1,30,80,7457,7467,330,,,False
31,2016-11-06 16:02:07,58216824,58223349,58223639,1,31,80,6513,6525,290,,,False
32,2016-11-06 16:02:15,58224661,58226855,58227222,1,32,80,2152,2194,367,,,False
33,2016-11-06 16:02:19,58228234,58232376,58232654,1,33,80,4125,4142,278,,,False
34,2016-11-06 16:02:24,58233661,58242380,58242697,1,34,80,8709,8719,317,,,False
35,2016-11-06 16:02:34,58243730,58252087,58252368,1,35,80,8338,8357,281,,,False
36,2016-11-06 16:02:44,58253403,58261925,58262231,1,36,80,8483,8522,306,,,False
37,2016-11-06 16:02:54,58263244,58272937,58273217,1,37,80,9639,9693,280,,,False
38,2016-11-06 16:03:05,58274229,58277810,58278295,1,38,80,3496,3581,485,,,False
39,2016-11-06 16:03:10,58279319,58281629,58281954,1,39,80,2273,2310,325,,,False
40,2016-11-06 10:07:52,46095298,46098205,46098581,1,0,77,2850,2907,376,,,False
41,2016-11-06 10:07:57,46099602,46107399,46107704,1,1,77,7751,7797,305,,,False
42,2016-11-06 10:08:06,46108715,46111019,46111358,1,2,77,2246,2304,339,,,False
43,2016-11-06 10:08:09,46112368,46115273,46115557,1,3,77,2804,2905,284,,,False
44,2016-11-06 10:08:14,46116567,46125390,46125681,1,4,77,8764,8823,291,,,False
45,2016-11-06 10:08:24,46126705,46129976,46130351,1,5,77,3222,3271,375,,,False
46,2016-11-06 10:08:28,46131380,46137730,46138019,1,6,77,6288,6350,289,,,False
47,2016-11-06 10:08:36,46139042,46143200,46143487,1,7,77,4144,4158,287,,,False
48,2016-11-06 10:08:42,46144507,46153298,46153621,1,8,77,8729,8791,323,,,False
49,2016-11-06 10:08:52,46154630,46163688,46163981,1,9,77,8996,9058,293,,,False
50,2016-11-06 10:09:02,46165006,46173785,46174303,1,10,77,8717,8779,518,minor_lapse,,False
51,2016-11-06 10:09:12,46175324,46184977,46185308,1,11,77,9594,9653,331,,,False
52,2016-11-06 10:09:23,46186328,46192275,46192621,1,12,77,5883,5947,346,,,False
53,2016-11-06 10:09:31,46193631,46202728,46203092,1,13,77,9027,9097,364,,,False
54,2016-11-06 10:09:41,46204114,46207873,46208269,1,14,77,3702,3759,396,,,False
55,2016-11-06 10:09:46,46209280,46214465,46214823,1,15,77,5121,5185,358,,,False
56,2016-11-06 10:09:53,46215836,46218977,46219315,1,16,77,3097,3141,338,,,False
57,2016-11-06 10:09:57,46220337,46227548,46227853,1,17,77,7159,7211,305,,,False
58,2016-11-06 10:10:06,46228874,46231146,46231559,1,18,77,2259,2272,413,,,False
59,2016-11-06 10:10:10,46232588,46236384,46236990,1,19,77,3721,3796,606,minor_lapse,,False
60,2016-11-06 10:10:15,46238013,46241458,46241831,1,20,77,3390,3445,373,,,False
61,2016-11-06 10:10:20,46242856,0,46246548,1,21,77,5764,0,-2072,false_start,,False
62,2016-11-06 10:10:25,46247561,46251966,46252291,1,22,77,4391,4405,325,,,False
63,2016-11-06 10:10:30,46253301,46259147,46259485,1,23,77,5770,5846,338,,,False
64,2016-11-06 10:10:38,46260493,46269857,46270181,1,24,77,9345,9364,324,,,False
65,2016-11-06 10:10:48,46271205,46275863,46276152,1,25,77,4643,4658,289,,,False
66,2016-11-06 10:10:54,46277160,46286511,46286880,1,26,77,9338,9351,369,,,False
67,2016-11-06 10:11:05,46287890,46296518,46296827,1,27,77,8568,8628,309,,,False
68,2016-11-06 10:11:15,46297855,46305501,46305796,1,28,77,7581,7646,295,,,False
69,2016-11-06 10:11:24,46306818,46315208,46315534,1,29,77,8334,8390,326,,,False
70,2016-11-06 10:11:34,46316560,46320717,46321117,1,30,77,4097,4157,400,,,False
71,2016-11-06 10:11:39,46322142,46326708,46327048,1,31,77,4510,4566,340,,,False
72,2016-11-06 10:11:45,46328070,46335485,46335781,1,32,77,7404,7415,296,,,False
73,2016-11-06 10:11:54,46336789,46341329,46341704,1,33,77,4475,4540,375,,,False
74,2016-11-06 10:12:00,46342728,46346463,46346875,1,34,77,3691,3735,412,,,False
75,2016-11-06 10:12:05,46347902,46353780,46354094,1,35,77,5860,5878,314,,,False
76,2016-11-06 10:12:12,46355102,46358066,46358654,1,36,77,2949,2964,588,minor_lapse,,False
77,2016-11-06 10:12:17,46359662,46368904,46369211,1,37,77,9189,9242,307,,,False
78,2016-11-06 10:12:27,46370247,46376713,46377026,1,38,77,6410,6466,313,,,False
79,2016-11-06 10:12:35,46378049,46384153,46384510,1,39,77,6063,6104,357,,,False
80,2016-11-06 10:12:43,46385531,46392296,46392599,1,40,77,6702,6765,303,,,False
81,2016-11-06 10:12:51,46393610,46400931,46401314,1,41,77,7301,7321,383,,,False
82,2016-10-31 09:30:12,164726236,164732955,164733286,1,0,29,6649,6719,331,,,False
83,2016-10-31 09:30:20,164734305,164741736,164742030,1,1,29,7386,7431,294,,,False
84,2016-10-31 09:30:29,164743059,164752067,164752350,1,2,29,8974,9008,283,,,False
85,2016-10-31 09:30:39,164753360,164758287,164758626,1,3,29,4884,4927,339,,,False
86,2016-10-31 09:30:45,164759651,164763266,164763574,1,4,29,3572,3615,308,,,False
87,2016-10-31 09:30:50,164764595,164769733,164770000,1,5,29,5096,5138,267,,,False
88,2016-10-31 09:30:57,164771012,164775296,164775582,1,6,29,4244,4284,286,,,False
89,2016-10-31 09:31:02,164776606,164782541,164782820,1,7,29,5902,5935,279,,,False
90,2016-10-31 09:31:10,164783846,164790186,164790467,1,8,29,6299,6340,281,,,False
91,2016-10-31 09:31:17,164791493,164797228,164797562,1,9,29,5720,5735,334,,,False
92,2016-10-31 09:31:24,164798580,164804604,164804854,1,10,29,5983,6024,250,,,False
93,2016-10-31 09:31:32,164805872,164810253,164810536,1,11,29,4342,4381,283,,,False
94,2016-10-31 09:31:37,164811546,164820590,164820838,1,12,29,9004,9044,248,,,False
95,2016-10-31 09:31:48,164821855,164825006,164825340,1,13,29,3081,3151,334,,,False
96,2016-10-31 09:31:52,164826351,164836136,164836400,1,14,29,9769,9785,264,,,False
97,2016-10-31 09:32:03,164837412,164842529,164842875,1,15,29,5103,5117,346,,,False
98,2016-10-31 09:32:10,164843906,164853576,164853868,1,16,29,9633,9670,292,,,False
99,2016-10-31 09:32:21,164854888,164861487,164861797,1,17,29,6550,6599,310,,,False
100,2016-10-31 09:32:29,164862829,164868607,164868920,1,18,29,5734,5778,313,,,False
101,2016-10-31 09:32:36,164869955,164875282,164875651,1,19,29,5287,5327,369,,,False
102,2016-10-31 09:32:43,164876673,164886168,164886491,1,20,29,9450,9495,323,,,False
103,2016-10-31 09:32:53,164887524,164895077,164895405,1,21,29,7520,7553,328,,,False
104,2016-10-31 09:33:02,164896439,164901598,164901908,1,22,29,5117,5159,310,,,False
105,2016-10-31 09:33:09,164902934,164912053,164912333,1,23,29,9073,9119,280,,,False
106,2016-10-31 09:33:19,164913355,164920448,164920723,1,24,29,7036,7093,275,,,False
107,2016-10-31 09:33:28,164921730,164927718,164928000,1,25,29,5939,5988,282,,,False
108,2016-10-31 09:33:35,164929036,164933078,164933383,1,26,29,4021,4042,305,,,False
109,2016-10-31 09:33:40,164934408,164940534,164940874,1,27,29,6081,6126,340,,,False
110,2016-10-31 09:33:48,164941899,164950522,164950857,1,28,29,8515,8623,335,,,False
111,2016-10-31 09:33:58,164951864,164958994,164959307,1,29,29,7063,7130,313,,,False
112,2016-10-31 09:34:06,164960331,0,164961702,1,30,29,7019,0,-5648,false_start,,False
113,2016-10-31 09:34:09,164962708,164966801,164967090,1,31,29,4035,4093,289,,,False
114,2016-10-31 09:34:14,164968125,164973529,164973840,1,32,29,5363,5404,311,,,False
115,2016-10-31 09:34:21,164974861,164977549,164977962,1,33,29,2678,2688,413,,,False
116,2016-10-31 09:34:25,164978981,164981039,164981399,1,34,29,2047,2058,360,,,False
117,2016-10-31 09:34:28,164982418,164988355,164988620,1,35,29,5912,5937,265,,,False
118,2016-10-31 09:34:35,164989637,164999124,164999473,1,36,29,9468,9487,349,,,False
119,2016-10-31 09:34:46,165000495,165008388,165008742,1,37,29,7844,7893,354,,,False
120,2016-10-31 09:34:56,165009759,165016835,165017200,1,38,29,7055,7076,365,,,False
121,2016-10-31 09:35:04,165018226,165026762,165027055,1,39,29,8494,8536,293,,,False
122,2016-10-31 15:24:20,181334645,181338388,181338720,1,0,32,3676,3743,332,,,False
123,2016-10-31 15:24:25,181339742,181345176,181345506,1,1,32,5394,5434,330,,,False
124,2016-10-31 15:24:32,181346531,181352878,181353155,1,2,32,6328,6347,277,,,False
125,2016-10-31 15:24:40,181354181,181363361,181363650,1,3,32,9134,9180,289,,,False
126,2016-10-31 15:24:50,181364670,181370972,181371303,1,4,32,6256,6302,331,,,False
127,2016-10-31 15:24:58,181372324,181376074,181376438,1,5,32,3712,3750,364,,,False
128,2016-10-31 15:25:03,181377460,181385613,181385906,1,6,32,8140,8153,293,,,False
129,2016-10-31 15:25:12,181386916,181389793,181390158,1,7,32,2863,2877,365,,,False
130,2016-10-31 15:25:17,181391167,181398954,181399289,1,8,32,7746,7787,335,,,False
131,2016-10-31 15:25:26,181400316,181402663,181403030,1,9,32,2311,2347,367,,,False
132,2016-10-31 15:25:30,181404063,181409441,181409719,1,10,32,5335,5378,278,,,False
133,2016-10-31 15:25:36,181410735,181417468,181417760,1,11,32,6690,6733,292,,,False
134,2016-10-31 15:25:44,181418780,181428303,181428617,1,12,32,9477,9523,314,,,False
135,2016-10-31 15:25:55,181429639,181438597,181438936,1,13,32,8909,8958,339,,,False
136,2016-10-31 15:26:06,181439954,181444273,181444636,1,14,32,4308,4319,363,,,False
137,2016-10-31 15:26:11,181445665,181447839,181448258,1,15,32,2163,2174,419,,,False
138,2016-10-31 15:26:15,181449276,181452223,181452565,1,16,32,2906,2947,342,,,False
139,2016-10-31 15:26:19,181453585,181457671,181458004,1,17,32,4044,4086,333,,,False
140,2016-10-31 15:26:25,181459024,181466527,181466789,1,18,32,7461,7503,262,,,False
141,2016-10-31 15:26:33,181467810,181471728,181472026,1,19,32,3876,3918,298,,,False
142,2016-10-31 15:26:39,181473054,181480694,181480978,1,20,32,7591,7640,284,,,False
143,2016-10-31 15:26:48,181481997,181486297,181486600,1,21,32,4258,4300,303,,,False
144,2016-10-31 15:26:53,181487633,181493429,181493729,1,22,32,5754,5796,300,,,False
145,2016-10-31 15:27:00,181494753,181504040,181504358,1,23,32,9268,9287,318,,,False
146,2016-10-31 15:27:11,181505380,181508577,181508919,1,24,32,3152,3197,342,,,False
147,2016-10-31 15:27:16,181509955,181516407,181516682,1,25,32,6405,6452,275,,,False
148,2016-10-31 15:27:23,181517701,181521419,181521661,1,26,32,3676,3718,242,,,False
149,2016-10-31 15:27:28,181522678,181528515,181528793,1,27,32,5790,5837,278,,,False
150,2016-10-31 15:27:35,181529822,181534235,181534550,1,28,32,4373,4413,315,,,False
151,2016-10-31 15:27:41,181535563,181539525,181539807,1,29,32,3925,3962,282,,,False
152,2016-10-31 15:27:46,181540828,181550306,181550633,1,30,32,9431,9478,327,,,False
153,2016-10-31 15:27:57,181551659,181561238,181561536,1,31,32,9528,9579,298,,,False
154,2016-10-31 15:28:08,181562559,181565202,181565576,1,32,32,2632,2643,374,,,False
155,2016-10-31 15:28:12,181566595,181573307,181573578,1,33,32,6666,6712,271,,,False
156,2016-10-31 15:28:20,181574586,181578339,181578660,1,34,32,3714,3753,321,,,False
157,2016-10-31 15:28:25,181579678,181581811,181582146,1,35,32,2108,2133,335,,,False
158,2016-10-31 15:28:29,181583186,181591658,181591928,1,36,32,8425,8472,270,,,False
159,2016-10-31 15:28:39,181592955,181599022,181599279,1,37,32,6028,6067,257,,,False
160,2016-10-31 15:28:46,181600287,181604086,181604383,1,38,32,3756,3799,297,,,False
161,2016-10-31 15:28:51,181605401,181615275,181615553,1,39,32,9828,9874,278,,,False
162,2016-10-31 15:29:02,181616572,181619200,181619822,1,40,32,2592,2628,622,minor_lapse,,False
163,2016-10-31 15:29:06,181620851,181624578,181624880,1,41,32,3682,3727,302,,,False
164,2016-10-31 15:29:11,181625900,181634428,181634722,1,42,32,8485,8528,294,,,False
165,2016-10-31 11:30:22,171936899,171941238,171941549,1,0,30,4269,4339,311,,,False
166,2016-10-31 11:30:28,171942573,171951480,171951802,1,1,30,8868,8907,322,,,False
167,2016-10-31 11:30:38,171952827,171958393,171958683,1,2,30,5555,5566,290,,,False
168,2016-10-31 11:30:45,171959713,171967963,171968317,1,3,30,8197,8250,354,,,False
169,2016-10-31 11:30:54,171969377,171974665,171975000,1,4,30,5249,5288,335,,,False
170,2016-10-31 11:31:01,171976012,171978175,171978461,1,5,30,2140,2163,286,,,False
171,2016-10-31 11:31:04,171979484,171985856,171986171,1,6,30,6301,6372,315,,,False
172,2016-10-31 11:31:12,171987182,171995774,171996086,1,7,30,8572,8592,312,,,False
173,2016-10-31 11:31:22,171997108,172005281,172005570,1,8,30,8139,8173,289,,,False
174,2016-10-31 11:31:32,172006589,172016031,172016334,1,9,30,9395,9442,303,,,False
175,2016-10-31 11:31:42,172017347,172026171,172026495,1,10,30,8758,8824,324,,,False
176,2016-10-31 11:31:52,172027507,172030038,172030463,1,11,30,2515,2531,425,,,False
177,2016-10-31 11:31:56,172031485,172036883,172037164,1,12,30,5343,5398,281,,,False
178,2016-10-31 11:32:03,172038186,172046477,172046809,1,13,30,8249,8291,332,,,False
179,2016-10-31 11:32:13,172047836,0,172051727,1,14,30,5790,0,-1899,false_start,,False
180,2016-10-31 11:32:18,172052731,172056321,172056703,1,15,30,3577,3590,382,,,False
181,2016-10-31 11:32:23,172057733,172061125,172061521,1,16,30,3346,3392,396,,,False
182,2016-10-31 11:32:28,172062579,172068051,172068366,1,17,30,5395,5472,315,,,False
183,2016-10-31 11:32:34,172069384,172077413,172077703,1,18,30,8014,8029,290,,,False
184,2016-10-31 11:32:44,172078720,172087622,172087931,1,19,30,8854,8902,309,,,False
185,2016-10-31 11:32:54,172088951,172092121,172092492,1,20,30,3156,3170,371,,,False
186,2016-10-31 11:32:58,172093508,172101484,172101870,1,21,30,7951,7976,386,,,False
187,2016-10-31 11:33:08,172102894,172108435,172108742,1,22,30,5505,5541,307,,,False
188,2016-10-31 11:33:15,172109765,172117224,172117543,1,23,30,7412,7459,319,,,False
189,2016-10-31 11:33:24,172118566,172125944,172126192,1,24,30,7335,7378,248,,,False
190,2016-10-31 11:33:32,172127211,172134544,172134831,1,25,30,7321,7333,287,,,False
191,2016-10-31 11:33:41,172135853,172140539,172140894,1,26,30,4672,4686,355,,,False
192,2016-10-31 11:33:47,172141902,172148403,172148786,1,27,30,6457,6501,383,,,False
193,2016-10-31 11:33:55,172149804,172153076,172153413,1,28,30,3259,3272,337,,,False
194,2016-10-31 11:33:59,172154422,172163298,172163667,1,29,30,8839,8876,369,,,False
195,2016-10-31 11:34:10,172164675,172171381,172171708,1,30,30,6665,6706,327,,,False
196,2016-10-31 11:34:18,172172733,172179782,172180060,1,31,30,6994,7049,278,,,False
197,2016-10-31 11:34:26,172181081,172189683,172190016,1,32,30,8552,8602,333,,,False
198,2016-10-31 11:34:36,172191057,172198926,172199247,1,33,30,7823,7869,321,,,False
199,2016-10-31 11:34:45,172200271,172205778,172206171,1,34,30,5467,5507,393,,,False
200,2016-10-31 11:34:52,172207189,172212173,172212552,1,35,30,4972,4984,379,,,False
201,2016-10-31 11:34:59,172213574,172222974,172223376,1,36,30,9351,9400,402,,,False
202,2016-10-31 11:35:09,172224412,172229405,172229727,1,37,30,4952,4993,322,,,False
203,2016-10-31 11:35:16,172230749,172233127,172233454,1,38,30,2337,2378,327,,,False
204,2016-10-31 11:35:19,172234479,172238261,172238608,1,39,30,3740,3782,347,,,False
205,2016-11-01 12:40:42,227036553,227043244,227043559,1,0,40,6671,6691,315,,,False
206,2016-11-01 12:40:50,227044566,227051054,227051323,1,1,40,6478,6488,269,,,False
207,2016-11-01 12:40:58,227052332,227057696,227057977,1,2,40,5311,5364,281,,,False
208,2016-11-01 12:41:04,227059013,227064120,227064423,1,3,40,5054,5107,303,,,False
209,2016-11-01 12:41:11,227065447,227069349,227069694,1,4,40,3851,3902,345,,,False
210,2016-11-01 12:41:16,227070712,227072998,227073390,1,5,40,2234,2286,392,,,False
211,2016-11-01 12:41:20,227074413,227077699,227078039,1,6,40,3241,3286,340,,,False
212,2016-11-01 12:41:24,227079059,0,227084551,1,7,40,7503,0,-2011,false_start,,False
213,2016-11-01 12:41:31,227085557,227095090,227095381,1,8,40,9513,9533,291,,,False
214,2016-11-01 12:41:42,227096389,0,227098066,1,9,40,7889,0,-6212,false_start,,False
215,2016-11-01 12:41:44,227099070,227105469,227105880,1,10,40,6352,6399,411,,,False
216,2016-11-01 12:41:52,227106899,227115657,227115957,1,11,40,8708,8758,300,,,False
217,2016-11-01 12:42:02,227116972,227122605,227123050,1,12,40,5616,5633,445,,,False
218,2016-11-01 12:42:09,227124059,227131448,227131733,1,13,40,7343,7389,285,,,False
219,2016-11-01 12:42:18,227132741,227139375,227139686,1,14,40,6616,6634,311,,,False
220,2016-11-01 12:42:26,227140694,227145853,227146210,1,15,40,5147,5159,357,,,False
221,2016-11-01 12:42:33,227147218,227149850,227150200,1,16,40,2620,2632,350,,,False
222,2016-11-01 12:42:37,227151208,227153259,227153559,1,17,40,2037,2051,300,,,False
223,2016-11-01 12:42:40,227154568,227160750,227161030,1,18,40,6168,6182,280,,,False
224,2016-11-01 12:42:47,227162038,227164912,227165192,1,19,40,2859,2874,280,,,False
225,2016-11-01 12:42:52,227166201,227168753,227169091,1,20,40,2538,2552,338,,,False
226,2016-11-01 12:42:55,227170105,227176070,227176363,1,21,40,5938,5965,293,,,False
227,2016-11-01 12:43:02,227177429,227185668,227185909,1,22,40,8217,8239,241,,,False
228,2016-11-01 12:43:11,227186960,227196919,227197196,1,23,40,9937,9959,277,,,False
229,2016-11-01 12:43:23,227198353,227206910,227207189,1,24,40,8540,8557,279,,,False
230,2016-11-01 12:43:33,227208206,227214521,227214829,1,25,40,6302,6315,308,,,False
231,2016-11-01 12:43:40,227215861,0,227217383,1,26,40,4269,0,-2747,false_start,,False
232,2016-11-01 12:43:43,227218469,227226743,227227088,1,27,40,8258,8274,345,,,False
233,2016-11-01 12:43:53,227228096,227232116,227232476,1,28,40,4009,4020,360,,,False
234,2016-11-01 12:43:58,227233484,227236951,227237407,1,29,40,3456,3467,456,,,False
235,2016-11-01 12:44:03,227238414,227244294,227244584,1,30,40,5865,5880,290,,,False
236,2016-11-01 12:44:10,227245592,227248997,227249465,1,31,40,3392,3405,468,,,False
237,2016-11-01 12:44:15,227250474,227260383,227260734,1,32,40,9892,9909,351,,,False
238,2016-11-01 12:44:26,227261742,227268140,227269214,1,33,40,6383,6398,1074,minor_lapse,,False
239,2016-11-01 12:44:35,227270222,227278305,227278656,1,34,40,8064,8083,351,,,False
240,2016-11-01 12:44:44,227279664,227287265,227287544,1,35,40,7592,7601,279,,,False
241,2016-11-01 12:44:53,227288552,0,227291156,1,36,40,8711,0,-6107,false_start,,False
242,2016-11-01 12:44:57,227292165,227295434,227295782,1,37,40,3253,3269,348,,,False
243,2016-11-01 12:45:01,227296799,227304363,227304668,1,38,40,7549,7564,305,,,False
244,2016-11-01 12:45:10,227305677,227312388,227312723,1,39,40,6695,6711,335,,,False
245,2016-11-01 12:45:18,227313749,227322854,227323215,1,40,40,9085,9105,361,,,False
246,2016-11-01 12:45:29,227324222,227333497,227333923,1,41,40,9231,9275,426,,,False
247,2016-11-01 12:45:39,227334968,227343621,227343973,1,42,40,8604,8653,352,,,False
248,2016-11-07 06:08:23,79630726,79639196,79639528,1,0,85,8390,8470,332,,,False
249,2016-11-07 06:08:33,79640538,79649380,79649720,1,1,85,8803,8842,340,,,False
250,2016-11-07 06:08:43,79650740,79655393,79655721,1,2,85,4611,4653,328,,,False
251,2016-11-07 06:08:49,79656742,79665410,79665791,1,3,85,8622,8668,381,,,False
252,2016-11-07 06:08:59,79666810,79671782,79672144,1,4,85,4930,4972,362,,,False
253,2016-11-07 06:09:06,79673166,79682132,79682488,1,5,85,8931,8966,356,,,False
254,2016-11-07 06:09:16,79683507,79693111,79693474,1,6,85,9558,9604,363,,,False
255,2016-11-07 06:09:27,79694495,79704143,79704494,1,7,85,9601,9648,351,,,False
256,2016-11-07 06:09:38,79705519,79709892,79710294,1,8,85,4328,4373,402,,,False
257,2016-11-07 06:09:44,79711311,79720889,79721237,1,9,85,9528,9578,348,,,False
258,2016-11-07 06:09:55,79722269,79725173,79725615,1,10,85,2859,2904,442,,,False
259,2016-11-07 06:09:59,79726643,79734049,79734405,1,11,85,7370,7406,356,,,False
260,2016-11-07 06:10:08,79735421,79743364,79743717,1,12,85,7900,7943,353,,,False
261,2016-11-07 06:10:17,79744736,79747718,79748113,1,13,85,2944,2982,395,,,False
262,2016-11-07 06:10:22,79749130,79756920,79757276,1,14,85,7745,7790,356,,,False
263,2016-11-07 06:10:31,79758299,79760489,79760912,1,15,85,2141,2190,423,,,False
264,2016-11-07 06:10:35,79761923,79768525,79768917,1,16,85,6556,6602,392,,,False
265,2016-11-07 06:10:43,79769928,79777355,79777704,1,17,85,7411,7427,349,,,False
266,2016-11-07 06:10:51,79778740,79786139,79786528,1,18,85,7358,7399,389,,,False
267,2016-11-07 06:11:00,79787551,79796812,79797195,1,19,85,9213,9261,383,,,False
268,2016-11-07 06:11:11,79798215,79806744,79807084,1,20,85,8510,8529,340,,,False
269,2016-11-07 06:11:21,79808102,79815216,79815602,1,21,85,7068,7114,386,,,False
270,2016-11-07 06:11:29,79816613,79824006,79824311,1,22,85,7351,7393,305,,,False
271,2016-11-07 06:11:38,79825328,79835017,79835457,1,23,85,9638,9689,440,,,False
272,2016-11-07 06:11:49,79836480,79842103,79842505,1,24,85,5580,5623,402,,,False
273,2016-11-07 06:11:56,79843522,79850454,79850826,1,25,85,6885,6932,372,,,False
274,2016-11-07 06:12:05,79851840,79854125,79854593,1,26,85,2271,2285,468,,,False
275,2016-11-07 06:12:08,79855610,79857901,79858295,1,27,85,2279,2291,394,,,False
276,2016-11-07 06:12:12,79859305,79868886,79869237,1,28,85,9528,9581,351,,,False
277,2016-11-07 06:12:23,79870256,79880169,79880508,1,29,85,9866,9913,339,,,False
278,2016-11-07 06:12:34,79881528,79887022,79887383,1,30,85,5449,5494,361,,,False
279,2016-11-07 06:12:41,79888406,79891882,79892292,1,31,85,3430,3476,410,,,False
280,2016-11-07 06:12:46,79893312,79900016,79900351,1,32,85,6653,6704,335,,,False
281,2016-11-07 06:12:54,79901376,79904217,79904575,1,33,85,2800,2841,358,,,False
282,2016-11-07 06:12:58,79905608,79913286,79913634,1,34,85,7643,7678,348,,,False
283,2016-11-07 06:13:07,79914654,79922258,79922601,1,35,85,7560,7604,343,,,False
284,2016-11-07 06:13:16,79923645,79928285,79928602,1,36,85,4629,4640,317,,,False
285,2016-11-07 06:13:22,79929621,0,79930139,1,37,85,8334,0,-7816,false_start,,False
286,2016-11-07 06:13:24,79931144,79935487,79935850,1,38,85,4305,4343,363,,,False
287,2016-11-01 20:14:35,247546837,247549832,247550217,1,0,44,2917,2995,385,,,False
288,2016-11-01 20:14:39,247551228,247555305,247555668,1,1,44,4022,4077,363,,,False
289,2016-11-01 20:14:44,247556679,247563580,247564011,1,2,44,6864,6901,431,,,False
290,2016-11-01 20:14:53,247565034,247570607,247571013,1,3,44,5559,5573,406,,,False
291,2016-11-01 20:15:00,247572032,247576711,247577042,1,4,44,4635,4679,331,,,False
292,2016-11-01 20:15:06,247578061,247581220,247581560,1,5,44,3112,3159,340,,,False
293,2016-11-01 20:15:10,247582583,247589344,247589620,1,6,44,6718,6761,276,,,False
294,2016-11-01 20:15:18,247590631,247593090,247593488,1,7,44,2448,2459,398,,,False
295,2016-11-01 20:15:22,247594496,247601955,247602278,1,8,44,7416,7459,323,,,False
296,2016-11-01 20:15:31,247603308,247607827,247608127,1,9,44,4472,4519,300,,,False
297,2016-11-01 20:15:37,247609146,247619076,247619422,1,10,44,9881,9930,346,,,False
298,2016-11-01 20:15:48,247620442,247628610,247629104,1,11,44,8120,8168,494,,,False
299,2016-11-01 20:15:58,247630129,247633148,247633750,1,12,44,2977,3019,602,minor_lapse,,False
300,2016-11-01 20:16:02,247634770,247637697,247638053,1,13,44,2916,2927,356,,,False
301,2016-11-01 20:16:07,247639076,247645067,247645403,1,14,44,5940,5991,336,,,False
302,2016-11-01 20:16:14,247646421,247648844,247649248,1,15,44,2382,2423,404,,,False
303,2016-11-01 20:16:18,247650267,247652945,247653375,1,16,44,2635,2678,430,,,False
304,2016-11-01 20:16:22,247654398,247660257,247660576,1,17,44,5805,5859,319,,,False
305,2016-11-01 20:16:29,247661599,247669934,247670263,1,18,44,8287,8335,329,,,False
306,2016-11-01 20:16:39,247671284,247674948,247675312,1,19,44,3623,3664,364,,,False
307,2016-11-01 20:16:44,247676330,247685652,247685961,1,20,44,9274,9322,309,,,False
308,2016-11-01 20:16:55,247686981,247695910,247696367,1,21,44,8903,8929,457,,,False
309,2016-11-01 20:17:05,247697405,247702042,247702452,1,22,44,4589,4637,410,,,False
310,2016-11-01 20:17:11,247703478,247713393,247713686,1,23,44,9875,9915,293,,,False
311,2016-11-01 20:17:22,247714717,247718786,247719147,1,24,44,4052,4069,361,,,False
312,2016-11-01 20:17:28,247720156,247726005,247726310,1,25,44,5801,5849,305,,,False
313,2016-11-01 20:17:35,247727332,247729491,247730083,1,26,44,2145,2159,592,minor_lapse,,False
314,2016-11-01 20:17:39,247731102,247740362,247740730,1,27,44,9208,9260,368,,,False
315,2016-11-01 20:17:49,247741749,0,247742839,1,28,44,3937,0,-2847,false_start,,False
316,2016-11-01 20:17:52,247743844,247748313,247748695,1,29,44,4421,4469,382,,,False
317,2016-11-01 20:17:57,247749711,247752621,247753014,1,30,44,2869,2910,393,,,False
318,2016-11-01 20:18:02,247754041,247756332,247756701,1,31,44,2267,2291,369,,,False
319,2016-11-01 20:18:05,247757713,247764261,247764664,1,32,44,6498,6548,403,,,False
320,2016-11-01 20:18:13,247765681,247774387,247774760,1,33,44,8658,8706,373,,,False
321,2016-11-01 20:18:23,247775789,247781953,247782317,1,34,44,6150,6164,364,,,False
322,2016-11-01 20:18:31,247783325,247786436,247787088,1,35,44,3070,3111,652,minor_lapse,,False
323,2016-11-01 20:18:36,247788109,247790912,247791405,1,36,44,2762,2803,493,,,False
324,2016-11-01 20:18:40,247792451,247796826,247797216,1,37,44,4292,4375,390,,,False
325,2016-11-01 20:18:46,247798235,247805151,247805469,1,38,44,6879,6916,318,,,False
326,2016-11-01 20:18:54,247806495,247816298,247816648,1,39,44,9763,9803,350,,,False
327,2016-11-01 20:19:05,247817661,247820219,247820567,1,40,44,2525,2558,348,,,False
328,2016-11-01 20:19:09,247821588,247823614,247824104,1,41,44,2013,2026,490,,,False
329,2016-11-01 20:19:13,247825123,247831380,247831748,1,42,44,6240,6257,368,,,False
330,2016-11-01 20:19:20,247832780,247839401,247839775,1,43,44,6574,6621,374,,,False
331,2016-11-01 20:19:28,247840801,247843378,247843686,1,44,44,2532,2577,308,,,False
332,2016-11-01 20:19:32,247844711,247853038,247853419,1,45,44,8285,8327,381,,,False
333,2016-11-02 07:41:18,270842316,270851974,270852381,1,0,46,9614,9658,407,,,False
334,2016-11-02 07:41:29,270853404,270858495,270858842,1,1,46,5076,5091,347,,,False
335,2016-11-02 07:41:36,270859862,270865509,270865836,1,2,46,5632,5647,327,,,False
336,2016-11-02 07:41:43,270866851,270872005,270872405,1,3,46,5113,5154,400,,,False
337,2016-11-02 07:41:49,270873422,270880548,270880942,1,4,46,7079,7126,394,,,False
338,2016-11-02 07:41:58,270881960,270886184,270886588,1,5,46,4211,4224,404,,,False
339,2016-11-02 07:42:03,270887601,270891629,270891978,1,6,46,3989,4028,349,,,False
340,2016-11-02 07:42:09,270893022,270898702,270899982,1,7,46,5633,5680,1280,minor_lapse,,False
341,2016-11-02 07:42:17,270900999,0,270905857,1,8,46,9160,0,-4302,false_start,,False
342,2016-11-02 07:42:23,270906861,270916863,270917477,1,9,46,9986,10002,614,minor_lapse,,False
343,2016-11-02 07:42:34,270918488,270925279,270925598,1,10,46,6745,6791,319,,,False
344,2016-11-02 07:42:42,270926625,270928818,270929514,1,11,46,2156,2193,696,minor_lapse,,False
345,2016-11-02 07:42:46,270930539,270935176,270935566,1,12,46,4597,4637,390,,,False
346,2016-11-02 07:42:52,270936588,270946294,270946629,1,13,46,9655,9706,335,,,False
347,2016-11-02 07:43:03,270947648,270955857,270956329,1,14,46,8162,8209,472,,,False
348,2016-11-02 07:43:13,270957382,270963148,270963494,1,15,46,5751,5766,346,,,False
349,2016-11-02 07:43:20,270964519,270974039,270974444,1,16,46,9471,9520,405,,,False
350,2016-11-02 07:43:31,270975466,270979685,270980147,1,17,46,4210,4219,462,,,False
351,2016-11-02 07:43:37,270981165,0,270982569,1,18,46,3053,0,-1649,false_start,,False
352,2016-11-02 07:43:39,270983574,270986865,270987410,1,19,46,3247,3291,545,minor_lapse,,False
353,2016-11-02 07:43:44,270988429,270990744,270991160,1,20,46,2274,2315,416,,,False
354,2016-11-02 07:43:48,270992182,270995948,270996305,1,21,46,3723,3766,357,,,False
355,2016-11-02 07:43:53,270997328,271001668,271002029,1,22,46,4299,4340,361,,,False
356,2016-11-02 07:43:59,271003039,271009853,271010165,1,23,46,6796,6814,312,,,False
357,2016-11-02 07:44:07,271011173,271015820,271016192,1,24,46,4606,4647,372,,,False
358,2016-11-02 07:44:13,271017202,271020514,271020850,1,25,46,3268,3312,336,,,False
359,2016-11-02 07:44:18,271021884,271028277,271028860,1,26,46,6377,6393,583,minor_lapse,,False
360,2016-11-02 07:44:26,271029879,271036919,271037279,1,27,46,6968,7040,360,,,False
361,2016-11-02 07:44:34,271038300,271045753,271046046,1,28,46,7408,7453,293,,,False
362,2016-11-02 07:44:43,271047089,271055358,271055675,1,29,46,8222,8269,317,,,False
363,2016-11-02 07:44:53,271056691,271065563,271065934,1,30,46,8826,8872,371,,,False
364,2016-11-02 07:45:03,271066956,271076683,271076999,1,31,46,9709,9727,316,,,False
365,2016-11-02 07:45:14,271078007,271080304,271080688,1,32,46,2253,2297,384,,,False
366,2016-11-02 07:45:18,271081724,271087472,271087864,1,33,46,5703,5748,392,,,False
367,2016-11-02 07:45:25,271088884,271093655,271093982,1,34,46,4739,4771,327,,,False
368,2016-11-02 07:45:31,271095003,0,271099467,1,35,46,5883,0,-1419,false_start,,False
369,2016-11-02 07:45:36,271100479,271107657,271108030,1,36,46,7162,7178,373,,,False
370,2016-11-02 07:45:45,271109050,271114838,271115237,1,37,46,5744,5788,399,,,False
371,2016-11-02 07:45:52,271116258,271126003,271126381,1,38,46,9730,9745,378,,,False
372,2016-11-02 07:46:03,271127400,271130551,271131007,1,39,46,3113,3151,456,,,False
373,2016-11-02 07:46:08,271132028,271139804,271140159,1,40,46,7723,7776,355,,,False
374,2016-11-02 07:46:17,271141178,0,271143142,1,41,46,6461,0,-4497,false_start,,False
375,2016-11-02 07:46:20,271144146,271153852,271154581,1,42,46,9660,9706,729,minor_lapse,,False
376,2016-11-03 15:41:04,348028439,348038204,348038514,1,0,58,9745,9765,310,,,False
377,2016-11-03 15:41:15,348039527,348042997,348043268,1,1,58,3388,3470,271,,,False
378,2016-11-03 15:41:19,348044276,348048890,348049221,1,2,58,4597,4614,331,,,False
379,2016-11-03 15:41:25,348050229,348052988,348053316,1,3,58,2711,2759,328,,,False
380,2016-11-03 15:41:29,348054333,348061062,348061338,1,4,58,6677,6729,276,,,False
381,2016-11-03 15:41:37,348062357,348069998,348070286,1,5,58,7585,7641,288,,,False
382,2016-11-03 15:41:46,348071324,348074808,348075230,1,6,58,3441,3484,422,,,False
383,2016-11-03 15:41:51,348076253,348085103,348085408,1,7,58,8798,8850,305,,,False
384,2016-11-03 15:42:02,348086429,0,348093319,1,8,58,8652,0,-1762,false_start,,False
385,2016-11-03 15:42:09,348094324,348099719,348100002,1,9,58,5371,5395,283,,,False
386,2016-11-03 15:42:16,348101045,348103444,348103772,1,10,58,2383,2399,328,,,False
387,2016-11-03 15:42:20,348104809,348108512,348108814,1,11,58,3660,3703,302,,,False
388,2016-11-03 15:42:25,348109846,348117688,348117987,1,12,58,7791,7842,299,,,False
389,2016-11-03 15:42:34,348119015,348127463,348127793,1,13,58,8388,8448,330,,,False
390,2016-11-03 15:42:44,348128821,348136487,348136778,1,14,58,7649,7666,291,,,False
391,2016-11-03 15:42:53,348137813,348143877,348144215,1,15,58,6009,6064,338,,,False
392,2016-11-03 15:43:00,348145243,348152736,348153040,1,16,58,7436,7493,304,,,False
393,2016-11-03 15:43:09,348154072,348163448,348163829,1,17,58,9362,9376,381,,,False
394,2016-11-03 15:43:20,348164837,348170478,348170773,1,18,58,5595,5641,295,,,False
395,2016-11-03 15:43:27,348171794,348177447,348177750,1,19,58,5602,5653,303,,,False
396,2016-11-03 15:43:34,348178761,348186079,348186380,1,20,58,7262,7318,301,,,False
397,2016-11-03 15:43:43,348187406,348193926,348194211,1,21,58,6485,6520,285,,,False
398,2016-11-03 15:43:50,348195251,348203554,348203811,1,22,58,8255,8303,257,,,False
399,2016-11-03 15:44:00,348204835,348213329,348213655,1,23,58,8437,8494,326,,,False
400,2016-11-03 15:44:10,348214673,348220761,348221073,1,24,58,6040,6088,312,,,False
401,2016-11-03 15:44:17,348222098,348230249,348230594,1,25,58,8108,8151,345,,,False
402,2016-11-03 15:44:27,348231614,348237338,348237723,1,26,58,5677,5724,385,,,False
403,2016-11-03 15:44:34,348238750,348248437,348248731,1,27,58,9660,9687,294,,,False
404,2016-11-03 15:44:45,348249758,348259696,348259936,1,28,58,9793,9938,240,,,False
405,2016-11-03 15:44:56,348260944,348270953,348271337,1,29,58,9956,10009,384,,,False
406,2016-11-03 15:45:07,348272375,348280525,348280799,1,30,58,8092,8150,274,,,False
407,2016-11-03 15:45:17,348281811,348288133,348288481,1,31,58,6307,6322,348,,,False
408,2016-11-03 15:45:25,348289514,348291568,348291930,1,32,58,2040,2054,362,,,False
409,2016-11-03 15:45:28,348292962,348298278,348298640,1,33,58,5261,5316,362,,,False
410,2016-11-03 15:45:35,348299666,348308596,348308899,1,34,58,8870,8930,303,,,False
411,2016-11-03 15:45:45,348309960,348317671,348318022,1,35,58,7655,7711,351,,,False
412,2016-11-03 15:45:54,348319049,348327742,348328078,1,36,58,8665,8693,336,,,False
413,2016-11-04 11:31:40,387551767,387561833,387562274,1,0,64,9992,10066,441,,,False
414,2016-11-04 11:31:52,387563297,387566248,387566613,1,1,64,2942,2951,365,,,False
415,2016-11-04 11:31:56,387567622,387576071,387576419,1,2,64,8401,8449,348,,,False
416,2016-11-04 11:32:06,387577431,387582684,387582983,1,3,64,5239,5253,299,,,False
417,2016-11-04 11:32:13,387583991,387590491,387590780,1,4,64,6489,6500,289,,,False
418,2016-11-04 11:32:20,387591800,387598871,387599222,1,5,64,7027,7071,351,,,False
419,2016-11-04 11:32:29,387600250,387604054,387604472,1,6,64,3791,3804,418,,,False
420,2016-11-04 11:32:34,387605481,387608242,387608583,1,7,64,2749,2761,341,,,False
421,2016-11-04 11:32:38,387609592,387611897,387612204,1,8,64,2292,2305,307,,,False
422,2016-11-04 11:32:42,387613230,387622537,387622808,1,9,64,9263,9307,271,,,False
423,2016-11-04 11:32:52,387623835,387626058,387626356,1,10,64,2181,2223,298,,,False
424,2016-11-04 11:32:56,387627387,387634164,387634393,1,11,64,6763,6777,229,,,False
425,2016-11-04 11:33:04,387635403,387643408,387643675,1,12,64,7989,8005,267,,,False
426,2016-11-04 11:33:13,387644684,387647815,387648101,1,13,64,3116,3131,286,,,False
427,2016-11-04 11:33:18,387649109,387655883,387656185,1,14,64,6757,6774,302,,,False
428,2016-11-04 11:33:26,387657216,387663647,387663933,1,15,64,6412,6431,286,,,False
429,2016-11-04 11:33:34,387664942,387669666,387669955,1,16,64,4680,4724,289,,,False
430,2016-11-04 11:33:40,387670979,387676872,387677145,1,17,64,5876,5893,273,,,False
431,2016-11-04 11:33:47,387678153,387685296,387685633,1,18,64,7096,7143,337,,,False
432,2016-11-04 11:33:55,387686651,387694844,387695155,1,19,64,8140,8193,311,,,False
433,2016-11-04 11:34:05,387696177,387698266,387698586,1,20,64,2076,2089,320,,,False
434,2016-11-04 11:34:08,387699594,387701820,387702145,1,21,64,2192,2226,325,,,False
435,2016-11-04 11:34:12,387703170,387711675,387711994,1,22,64,8487,8505,319,,,False
436,2016-11-04 11:34:22,387713002,387721205,387721501,1,23,64,8187,8203,296,,,False
437,2016-11-04 11:34:31,387722520,387724980,387725315,1,24,64,2439,2460,335,,,False
438,2016-11-04 11:34:35,387726323,387731355,387731661,1,25,64,5016,5032,306,,,False
439,2016-11-04 11:34:41,387732670,387738223,387738611,1,26,64,5541,5553,388,,,False
440,2016-11-04 11:34:47,387739620,387749414,387749658,1,27,64,9776,9794,244,,,False
441,2016-11-04 11:34:58,387750714,387752762,387753058,1,28,64,2038,2048,296,,,False
442,2016-11-04 11:35:01,387754072,387762382,387763060,1,29,64,8298,8310,678,minor_lapse,,False
443,2016-11-04 11:35:11,387764081,387770945,387771234,1,30,64,6844,6864,289,,,False
444,2016-11-04 11:35:19,387772242,387778024,387778257,1,31,64,5770,5782,233,,,False
445,2016-11-04 11:35:26,387779268,387788065,387788364,1,32,64,8783,8797,299,,,False
446,2016-11-04 11:35:37,387789425,387791474,387791797,1,33,64,2037,2049,323,,,False
447,2016-11-04 11:35:40,387792810,387796972,387797306,1,34,64,4147,4162,334,,,False
448,2016-11-04 11:35:45,387798315,387807304,387807587,1,35,64,8978,8989,283,,,False
449,2016-11-04 11:35:56,387808602,387817608,387817878,1,36,64,8997,9006,270,,,False
450,2016-11-04 11:36:06,387818904,387821978,387822286,1,37,64,3061,3074,308,,,False
451,2016-11-04 11:36:10,387823294,387828285,387828590,1,38,64,4953,4991,305,,,False
452,2016-11-04 11:36:17,387829609,387833718,387833959,1,39,64,4092,4109,241,,,False
453,2016-11-04 11:36:22,387834967,387837114,387837383,1,40,64,2135,2147,269,,,False
454,2016-11-04 11:36:25,387838391,387843966,387844215,1,41,64,5561,5575,249,,,False
455,2016-11-04 11:36:32,387845224,387854805,387855069,1,42,64,9522,9581,264,,,False
456,2016-11-03 17:39:11,355116115,355123742,355124042,1,0,59,7582,7627,300,,,False
457,2016-11-03 17:39:20,355125057,355128803,355129051,1,1,59,3709,3746,248,,,False
458,2016-11-03 17:39:25,355130084,355132684,355133005,1,2,59,2559,2600,321,,,False
459,2016-11-03 17:39:29,355134013,355141319,355141613,1,3,59,7287,7306,294,,,False
460,2016-11-03 17:39:38,355142622,355145146,355145535,1,4,59,2489,2524,389,,,False
461,2016-11-03 17:39:42,355146565,355151909,355152213,1,5,59,5237,5344,304,,,False
462,2016-11-03 17:39:48,355153243,355159949,355160229,1,6,59,6657,6706,280,,,False
463,2016-11-03 17:39:56,355161262,355168723,355168981,1,7,59,7447,7461,258,,,False
464,2016-11-03 17:40:05,355169992,355174605,355174913,1,8,59,4573,4613,308,,,False
465,2016-11-03 17:40:11,355175951,355182417,355182709,1,9,59,6424,6466,292,,,False
466,2016-11-03 17:40:19,355183764,355187745,355188147,1,10,59,3963,3981,402,,,False
467,2016-11-03 17:40:24,355189155,355197555,355197835,1,11,59,8349,8400,280,,,False
468,2016-11-03 17:40:34,355198864,355208599,355208880,1,12,59,9681,9735,281,,,False
469,2016-11-03 17:40:45,355209911,355212370,355212804,1,13,59,2445,2459,434,,,False
470,2016-11-03 17:40:49,355213832,355217406,355217755,1,14,59,3525,3574,349,,,False
471,2016-11-03 17:40:54,355218774,355228333,355228636,1,15,59,9512,9559,303,,,False
472,2016-11-03 17:41:05,355229699,355234052,355234363,1,16,59,4316,4353,311,,,False
473,2016-11-03 17:41:11,355235385,355244183,355244427,1,17,59,8781,8798,244,,,False
474,2016-11-03 17:41:21,355245435,355255049,355255362,1,18,59,9539,9614,313,,,False
475,2016-11-03 17:41:32,355256406,355262547,355262849,1,19,59,6125,6141,302,,,False
476,2016-11-03 17:41:39,355263884,355269678,355269987,1,20,59,5733,5794,309,,,False
477,2016-11-03 17:41:46,355271001,355275618,355275925,1,21,59,4563,4617,307,,,False
478,2016-11-03 17:41:52,355276953,355282933,355283274,1,22,59,5915,5980,341,,,False
479,2016-11-03 17:41:59,355284282,355293299,355293623,1,23,59,8960,9017,324,,,False
480,2016-11-03 17:42:10,355294670,355303818,355304137,1,24,59,9081,9148,319,,,False
481,2016-11-03 17:42:20,355305152,355314288,355314615,1,25,59,9089,9136,327,,,False
482,2016-11-03 17:42:31,355315645,355323832,355324112,1,26,59,8129,8187,280,,,False
483,2016-11-03 17:42:40,355325131,355331867,355332205,1,27,59,6723,6736,338,,,False
484,2016-11-03 17:42:48,355333254,355342185,355342457,1,28,59,8875,8931,272,,,False
485,2016-11-03 17:42:59,355343499,355349864,355350146,1,29,59,6351,6365,282,,,False
486,2016-11-03 17:43:06,355351166,355354197,355354550,1,30,59,2989,3031,353,,,False
487,2016-11-03 17:43:11,355355572,355358248,355358539,1,31,59,2664,2676,291,,,False
488,2016-11-03 17:43:15,355359547,355369223,355369519,1,32,59,9622,9676,296,,,False
489,2016-11-03 17:43:26,355370544,355377430,355377740,1,33,59,6832,6886,310,,,False
490,2016-11-03 17:43:34,355378797,355386950,355387234,1,34,59,8110,8153,284,,,False
491,2016-11-03 17:43:43,355388261,355394972,355395323,1,35,59,6564,6711,351,,,False
492,2016-11-03 17:43:51,355396357,355403413,355403750,1,36,59,7038,7056,337,,,False
493,2016-11-03 17:44:00,355404770,355408458,355408744,1,37,59,3651,3688,286,,,False
494,2016-11-03 17:44:05,355409787,355414138,355414436,1,38,59,4312,4351,298,,,False
495,2016-11-03 17:44:11,355415466,355423631,355423889,1,39,59,8114,8165,258,,,False
496,2016-11-03 21:41:17,364101377,364108845,364109302,1,0,61,7379,7468,457,,,False
497,2016-11-03 21:41:26,364110328,364116719,364117077,1,1,61,6371,6391,358,,,False
498,2016-11-03 21:41:34,364118100,364124873,364125545,1,2,61,6713,6773,672,minor_lapse,,False
499,2016-11-03 21:41:43,364126564,364129190,364129550,1,3,61,2589,2626,360,,,False
500,2016-11-03 21:41:47,364130573,364133079,364133398,1,4,61,2493,2506,319,,,False
501,2016-11-03 21:41:50,364134418,364139388,364139707,1,5,61,4925,4970,319,,,False
502,2016-11-03 21:41:57,364140731,364144153,364144456,1,6,61,3355,3422,303,,,False
503,2016-11-03 21:42:01,364145484,364148107,364148513,1,7,61,2600,2623,406,,,False
504,2016-11-03 21:42:05,364149520,364156847,364157158,1,8,61,7283,7327,311,,,False
505,2016-11-03 21:42:14,364158181,364161139,364161526,1,9,61,2900,2958,387,,,False
506,2016-11-03 21:42:19,364162552,364168868,364169161,1,10,61,6260,6316,293,,,False
507,2016-11-03 21:42:26,364170185,364174110,364174457,1,11,61,3884,3925,347,,,False
508,2016-11-03 21:42:31,364175476,364179978,364180292,1,12,61,4488,4502,314,,,False
509,2016-11-03 21:42:37,364181315,364184457,364184789,1,13,61,3101,3142,332,,,False
510,2016-11-03 21:42:42,364185818,364193289,364193585,1,14,61,7419,7471,296,,,False
511,2016-11-03 21:42:51,364194613,364198025,364198525,1,15,61,3372,3412,500,minor_lapse,,False
512,2016-11-03 21:42:56,364199551,364204689,364204958,1,16,61,5099,5138,269,,,False
513,2016-11-03 21:43:02,364205985,364209716,364210081,1,17,61,3684,3731,365,,,False
514,2016-11-03 21:43:07,364211092,364215608,364215881,1,18,61,4481,4516,273,,,False
515,2016-11-03 21:43:13,364216891,364223043,364223320,1,19,61,6136,6152,277,,,False
516,2016-11-03 21:43:20,364224328,364229094,364229443,1,20,61,4718,4766,349,,,False
517,2016-11-03 21:43:26,364230461,364240239,364240554,1,21,61,9760,9778,315,,,False
518,2016-11-03 21:43:38,364241597,364249122,364249433,1,22,61,7493,7525,311,,,False
519,2016-11-03 21:43:46,364250440,364254300,364254648,1,23,61,3799,3860,348,,,False
520,2016-11-03 21:43:52,364255675,364261187,364261529,1,24,61,5473,5512,342,,,False
521,2016-11-03 21:43:59,364262555,364265676,364266136,1,25,61,3058,3121,460,,,False
522,2016-11-03 21:44:03,364267164,364271658,364271979,1,26,61,4454,4494,321,,,False
523,2016-11-03 21:44:09,364273001,364275337,364275704,1,27,61,2319,2336,367,,,False
524,2016-11-03 21:44:13,364276714,364281649,364281961,1,28,61,4893,4935,312,,,False
525,2016-11-03 21:44:19,364282982,364289749,364290058,1,29,61,6714,6767,309,,,False
526,2016-11-03 21:44:27,364291071,364300955,364301257,1,30,61,9843,9884,302,,,False
527,2016-11-03 21:44:38,364302282,364304839,364305211,1,31,61,2515,2557,372,,,False
528,2016-11-03 21:44:42,364306231,364315344,364316025,1,32,61,9052,9113,681,minor_lapse,,False
529,2016-11-03 21:44:53,364317050,364322505,364322810,1,33,61,5398,5455,305,,,False
530,2016-11-03 21:45:00,364323833,364328261,364328609,1,34,61,4382,4428,348,,,False
531,2016-11-03 21:45:06,364329621,364332063,364332386,1,35,61,2378,2442,323,,,False
532,2016-11-03 21:45:09,364333398,364337857,364338178,1,36,61,4421,4459,321,,,False
533,2016-11-03 21:45:15,364339205,364342900,364343215,1,37,61,3640,3695,315,,,False
534,2016-11-03 21:45:20,364344241,364349170,364349472,1,38,61,4880,4929,302,,,False
535,2016-11-03 21:45:26,364350504,364359057,364359310,1,39,61,8504,8553,253,,,False
536,2016-11-03 21:45:36,364360338,364369793,364370133,1,40,61,9415,9455,340,,,False
537,2016-11-03 21:45:47,364371162,364377542,364377832,1,41,61,6307,6380,290,,,False
538,2016-11-03 21:45:55,364378854,364383453,364383823,1,42,61,4566,4599,370,,,False
539,2016-11-03 21:46:01,364384833,364388559,364388938,1,43,61,3659,3726,379,,,False
540,2016-11-03 21:46:06,364389973,364392479,364392836,1,44,61,2459,2506,357,,,False
541,2016-11-03 21:46:10,364393863,364403730,364404021,1,45,61,9794,9867,291,,,False
542,2016-11-03 07:48:54,325846411,325849117,325849477,1,0,54,2616,2706,360,,,False
543,2016-11-03 07:48:58,325850498,325852999,325853326,1,1,54,2486,2501,327,,,False
544,2016-11-03 07:49:02,325854354,325863148,325863512,1,2,54,8747,8794,364,,,False
545,2016-11-03 07:49:12,325864533,325871696,325872056,1,3,54,7099,7163,360,,,False
546,2016-11-03 07:49:21,325873083,325881715,325882162,1,4,54,8583,8632,447,,,False
547,2016-11-03 07:49:31,325883204,325889756,325890312,1,5,54,6496,6552,556,minor_lapse,,False
548,2016-11-03 07:49:39,325891334,325899545,325899908,1,6,54,8156,8211,363,,,False
549,2016-11-03 07:49:49,325900934,325909594,325910396,1,7,54,8602,8660,802,minor_lapse,,False
550,2016-11-03 07:49:59,325911421,325914047,325914499,1,8,54,2570,2626,452,,,False
551,2016-11-03 07:50:03,325915522,325924654,325925147,1,9,54,9114,9132,493,,,False
552,2016-11-03 07:50:14,325926187,325931552,325932106,1,10,54,5304,5365,554,minor_lapse,,False
553,2016-11-03 07:50:21,325933137,325942238,325942985,1,11,54,9048,9101,747,minor_lapse,,False
554,2016-11-03 07:50:32,325944005,325946548,325947109,1,12,54,2497,2543,561,minor_lapse,,False
555,2016-11-03 07:50:36,325948132,325953945,325954269,1,13,54,5763,5813,324,,,False
556,2016-11-03 07:50:43,325955292,325957626,325958068,1,14,54,2283,2334,442,,,False
557,2016-11-03 07:50:47,325959093,0,325962710,1,15,54,9864,0,-6247,false_start,,False
558,2016-11-03 07:50:51,325963725,325970265,325970774,1,16,54,6488,6540,509,minor_lapse,,False
559,2016-11-03 07:51:00,325971807,325974518,325974935,1,17,54,2655,2711,417,,,False
560,2016-11-03 07:51:04,325975963,325979313,325979715,1,18,54,3339,3350,402,,,False
561,2016-11-03 07:51:08,325980736,325990560,325991132,1,19,54,9757,9824,572,minor_lapse,,False
562,2016-11-03 07:51:20,325992153,325998682,325999014,1,20,54,6509,6529,332,,,False
563,2016-11-03 07:51:28,326000022,326006015,326006393,1,21,54,5936,5993,378,,,False
564,2016-11-03 07:51:35,326007406,326014604,326014928,1,22,54,7149,7198,324,,,False
565,2016-11-03 07:51:44,326015952,326024402,326024887,1,23,54,8397,8450,485,,,False
566,2016-11-03 07:51:54,326025906,326027951,326028582,1,24,54,2031,2045,631,minor_lapse,,False
567,2016-11-03 07:51:57,326029600,326038277,326038666,1,25,54,8621,8677,389,,,False
568,2016-11-03 07:52:07,326039674,326045181,326045557,1,26,54,5460,5507,376,,,False
569,2016-11-03 07:52:14,326046592,326050065,326050616,1,27,54,3425,3473,551,minor_lapse,,False
570,2016-11-03 07:52:19,326051639,326054992,326055250,1,28,54,3297,3353,258,,,False
571,2016-11-03 07:52:24,326056291,326059279,326059610,1,29,54,2977,2988,331,,,False
572,2016-11-03 07:52:28,326060632,326065610,326065912,1,30,54,4933,4978,302,,,False
573,2016-11-03 07:52:35,326066930,326070980,326071405,1,31,54,3996,4050,425,,,False
574,2016-11-03 07:52:40,326072432,326081641,326081961,1,32,54,9150,9209,320,,,False
575,2016-11-03 07:52:51,326082981,326087609,326088016,1,33,54,4579,4628,407,,,False
576,2016-11-03 07:52:57,326089061,326096789,326097091,1,34,54,7670,7728,302,,,False
577,2016-11-03 07:53:06,326098127,326101182,326101635,1,35,54,3013,3055,453,,,False
578,2016-11-03 07:53:10,326102672,326105662,326106055,1,36,54,2935,2990,393,,,False
579,2016-11-03 07:53:15,326107094,326114229,326114639,1,37,54,7086,7135,410,,,False
580,2016-11-03 07:53:23,326115659,326124254,326124684,1,38,54,8548,8595,430,,,False
581,2016-11-03 07:53:33,326125704,326130347,326130729,1,39,54,4627,4643,382,,,False
582,2016-11-03 07:53:40,326131759,326135677,326136270,1,40,54,3864,3918,593,minor_lapse,,False
583,2016-11-03 07:53:45,326137289,326145936,326146463,1,41,54,8604,8647,527,minor_lapse,,False
584,2016-11-04 09:29:34,382246173,382248648,382249311,1,0,63,2406,2475,663,minor_lapse,,False
585,2016-11-04 09:29:38,382250333,382254030,382254364,1,1,63,3629,3697,334,,,False
586,2016-11-04 09:29:43,382255388,382260199,382260516,1,2,63,4770,4811,317,,,False
587,2016-11-04 09:29:49,382261541,382266693,382267023,1,3,63,5103,5152,330,,,False
588,2016-11-04 09:29:56,382268053,382276365,382276683,1,4,63,8291,8312,318,,,False
589,2016-11-04 09:30:05,382277693,382281639,382282112,1,5,63,3901,3946,473,,,False
590,2016-11-04 09:30:11,382283128,382291873,382292235,1,6,63,8724,8745,362,,,False
591,2016-11-04 09:30:21,382293257,382296044,382296358,1,7,63,2773,2787,314,,,False
592,2016-11-04 09:30:25,382297367,382303617,382303916,1,8,63,6210,6250,299,,,False
593,2016-11-04 09:30:33,382304943,0,382307075,1,9,63,8008,0,-5876,false_start,,False
594,2016-11-04 09:30:36,382308079,382311849,382312172,1,10,63,3727,3770,323,,,False
595,2016-11-04 09:30:41,382313189,0,382317864,1,11,63,7891,0,-3216,false_start,,False
596,2016-11-04 09:30:47,382318891,382322225,382322473,1,12,63,3325,3334,248,,,False
597,2016-11-04 09:30:51,382323499,382331913,382332448,1,13,63,8402,8414,535,minor_lapse,,False
598,2016-11-04 09:31:01,382333484,382339471,382339766,1,14,63,5938,5987,295,,,False
599,2016-11-04 09:31:08,382340789,0,382343573,1,15,63,6436,0,-3652,false_start,,False
600,2016-11-04 09:31:12,382344585,382349467,382349776,1,16,63,4823,4882,309,,,False
601,2016-11-04 09:31:18,382350803,382358643,382358926,1,17,63,7826,7840,283,,,False
602,2016-11-04 09:31:28,382359934,382364912,382365254,1,18,63,4917,4978,342,,,False
603,2016-11-04 09:31:34,382366272,382372081,382372408,1,19,63,5764,5809,327,,,False
604,2016-11-04 09:31:41,382373427,382382647,382382907,1,20,63,9150,9220,260,,,False
605,2016-11-04 09:31:52,382383921,382391463,382391750,1,21,63,7473,7542,287,,,False
606,2016-11-04 09:32:00,382392822,382395203,382395596,1,22,63,2323,2381,393,,,False
607,2016-11-04 09:32:04,382396630,382403662,382403963,1,23,63,6967,7032,301,,,False
608,2016-11-04 09:32:13,382404993,382408637,382408974,1,24,63,3593,3644,337,,,False
609,2016-11-04 09:32:18,382410004,382413360,382413676,1,25,63,3296,3356,316,,,False
610,2016-11-04 09:32:22,382414740,382424444,382424728,1,26,63,9635,9704,284,,,False
611,2016-11-04 09:32:33,382425741,382435573,382435902,1,27,63,9780,9832,329,,,False
612,2016-11-04 09:32:45,382436930,382441886,382442390,1,28,63,4896,4956,504,minor_lapse,,False
613,2016-11-04 09:32:51,382443414,382447429,382447714,1,29,63,3990,4015,285,,,False
614,2016-11-04 09:32:56,382448749,382451008,382451319,1,30,63,2245,2259,311,,,False
615,2016-11-04 09:33:00,382452341,382458287,382458600,1,31,63,5932,5946,313,,,False
616,2016-11-04 09:33:07,382459632,382466726,382467034,1,32,63,7034,7094,308,,,False
617,2016-11-04 09:33:16,382468054,382471363,382471656,1,33,63,3301,3309,293,,,False
618,2016-11-04 09:33:20,382472664,382478358,382478615,1,34,63,5687,5694,257,,,False
619,2016-11-04 09:33:27,382479623,382484432,382484716,1,35,63,4794,4809,284,,,False
620,2016-11-04 09:33:33,382485724,382493801,382494125,1,36,63,8065,8077,324,,,False
621,2016-11-04 09:33:43,382495133,382499196,382499534,1,37,63,4024,4063,338,,,False
622,2016-11-04 09:33:48,382500552,0,382503495,1,38,63,9927,0,-6984,false_start,,False
623,2016-11-04 09:33:52,382504500,382510376,382510639,1,39,63,5864,5876,263,,,False
624,2016-11-04 09:33:59,382511666,382515252,382515578,1,40,63,3539,3586,326,,,False
625,2016-11-04 09:34:04,382516613,382525777,382526100,1,41,63,9131,9164,323,,,False
626,2016-11-04 09:34:15,382527139,382532387,382532692,1,42,63,5219,5248,305,,,False
627,2016-11-04 09:34:21,382533713,382542447,382542731,1,43,63,8667,8734,284,,,False
628,2016-11-04 09:34:31,382543752,382553468,382553806,1,44,63,9698,9716,338,,,False
629,2016-11-06 13:57:18,54049480,54058868,54059139,1,0,79,9341,9388,271,,,False
630,2016-11-06 13:57:29,54060157,0,54065873,1,1,79,6736,0,-1020,false_start,,False
631,2016-11-06 13:57:36,54066878,54074453,54074778,1,2,79,7561,7575,325,,,False
632,2016-11-06 13:57:45,54075794,54078328,54078706,1,3,79,2520,2534,378,,,False
633,2016-11-06 13:57:49,54079793,54082788,54083188,1,4,79,2982,2995,400,,,False
634,2016-11-06 13:57:53,54084212,54091747,54092048,1,5,79,7487,7535,301,,,False
635,2016-11-06 13:58:02,54093068,54097305,54097627,1,6,79,4223,4237,322,,,False
636,2016-11-06 13:58:07,54098651,54104830,54105132,1,7,79,6163,6179,302,,,False
637,2016-11-06 13:58:15,54106149,54108484,54108832,1,8,79,2292,2335,348,,,False
638,2016-11-06 13:58:19,54109848,54118229,54118579,1,9,79,8315,8381,350,,,False
639,2016-11-06 13:58:28,54119640,54124976,54125304,1,10,79,5260,5336,328,,,False
640,2016-11-06 13:58:35,54126324,54132176,54132566,1,11,79,5810,5852,390,,,False
641,2016-11-06 13:58:42,54133576,54138876,54139182,1,12,79,5226,5300,306,,,False
642,2016-11-06 13:58:49,54140214,54144625,54144968,1,13,79,4363,4411,343,,,False
643,2016-11-06 13:58:55,54145990,54154273,54154575,1,14,79,8265,8283,302,,,False
644,2016-11-06 13:59:04,54155595,54160097,54160503,1,15,79,4488,4502,406,,,False
645,2016-11-06 13:59:10,54161522,54164363,54164680,1,16,79,2780,2841,317,,,False
646,2016-11-06 13:59:15,54165708,54169918,54170260,1,17,79,4158,4210,342,,,False
647,2016-11-06 13:59:20,54171281,54177858,54178153,1,18,79,6504,6577,295,,,False
648,2016-11-06 13:59:28,54179174,54183253,54183600,1,19,79,4041,4079,347,,,False
649,2016-11-06 13:59:33,54184623,54190463,54190765,1,20,79,5795,5840,302,,,False
650,2016-11-06 13:59:41,54191791,54201023,54201370,1,21,79,9188,9232,347,,,False
651,2016-11-06 13:59:51,54202395,54211558,54211933,1,22,79,9145,9163,375,,,False
652,2016-11-06 14:00:02,54212949,54221711,54222031,1,23,79,8719,8762,320,,,False
653,2016-11-06 14:00:12,54223058,54228026,54228311,1,24,79,4923,4968,285,,,False
654,2016-11-06 14:00:18,54229333,54234862,54235188,1,25,79,5472,5529,326,,,False
655,2016-11-06 14:00:25,54236215,54242048,54242359,1,26,79,5785,5833,311,,,False
656,2016-11-06 14:00:32,54243381,54250539,54250876,1,27,79,7095,7158,337,,,False
657,2016-11-06 14:00:41,54251894,54260829,54261158,1,28,79,8889,8935,329,,,False
658,2016-11-06 14:00:51,54262188,54265256,54265593,1,29,79,3029,3068,337,,,False
659,2016-11-06 14:00:55,54266614,54270449,54270729,1,30,79,3767,3835,280,,,False
660,2016-11-06 14:01:01,54271754,54274354,54274671,1,31,79,2536,2600,317,,,False
661,2016-11-06 14:01:04,54275683,54283979,54284285,1,32,79,8235,8296,306,,,False
662,2016-11-06 14:01:14,54285312,54293502,54293850,1,33,79,8126,8190,348,,,False
663,2016-11-06 14:01:24,54294860,54303905,54304215,1,34,79,9028,9045,310,,,False
664,2016-11-06 14:01:34,54305222,54310149,54310414,1,35,79,4915,4927,265,,,False
665,2016-11-06 14:01:40,54311423,54318900,54319157,1,36,79,7438,7477,257,,,False
666,2016-11-06 14:01:49,54320185,0,54325136,1,37,79,8538,0,-3587,false_start,,False
667,2016-11-06 14:01:55,54326139,54331615,54331916,1,38,79,5431,5476,301,,,False
668,2016-11-06 14:02:02,54332936,54336265,54336717,1,39,79,3286,3329,452,,,False
669,2016-11-06 14:02:07,54337731,54344856,54345203,1,40,79,7078,7125,347,,,False
670,2016-11-06 14:02:15,54346223,54355264,54355569,1,41,79,9028,9041,305,,,False
671,2016-10-31 17:30:30,185819224,185826054,185826409,1,0,33,6753,6830,355,,,False
672,2016-10-31 17:30:38,185827435,185834181,185834498,1,1,33,6697,6746,317,,,False
673,2016-10-31 17:30:47,185835511,185844116,185844499,1,2,33,8586,8605,383,,,False
674,2016-10-31 17:30:57,185845506,185847894,185848256,1,3,33,2350,2388,362,,,False
675,2016-10-31 17:31:00,185849293,185857312,185857594,1,4,33,7970,8019,282,,,False
676,2016-10-31 17:31:10,185858607,185865926,185866243,1,5,33,7277,7319,317,,,False
677,2016-10-31 17:31:18,185867262,185875935,185876244,1,6,33,8620,8673,309,,,False
678,2016-10-31 17:31:28,185877271,185882514,185882830,1,7,33,5202,5243,316,,,False
679,2016-10-31 17:31:35,185883849,185889301,185889580,1,8,33,5409,5452,279,,,False
680,2016-10-31 17:31:42,185890601,185894315,185894624,1,9,33,3672,3714,309,,,False
681,2016-10-31 17:31:47,185895672,185904792,185905092,1,10,33,9071,9120,300,,,False
682,2016-10-31 17:31:57,185906112,185914699,185915032,1,11,33,8545,8587,333,,,False
683,2016-10-31 17:32:07,185916056,185921581,185921826,1,12,33,5483,5525,245,,,False
684,2016-10-31 17:32:14,185922847,185932095,185932366,1,13,33,9200,9248,271,,,False
685,2016-10-31 17:32:24,185933378,185937626,185937925,1,14,33,4207,4248,299,,,False
686,2016-10-31 17:32:30,185938944,185945776,185946112,1,15,33,6789,6832,336,,,False
687,2016-10-31 17:32:38,185947129,185950791,185951049,1,16,33,3650,3662,258,,,False
688,2016-10-31 17:32:43,185952068,185956069,185956390,1,17,33,3957,4001,321,,,False
689,2016-10-31 17:32:48,185957413,185961646,185961945,1,18,33,4196,4233,299,,,False
690,2016-10-31 17:32:54,185962981,185965748,185966021,1,19,33,2722,2767,273,,,False
691,2016-10-31 17:32:58,185967043,185971426,185971701,1,20,33,4340,4383,275,,,False
692,2016-10-31 17:33:04,185972711,185975061,185975374,1,21,33,2312,2350,313,,,False
693,2016-10-31 17:33:07,185976397,185980029,185980384,1,22,33,3588,3632,355,,,False
694,2016-10-31 17:33:12,185981404,185988567,185988831,1,23,33,7122,7163,264,,,False
695,2016-10-31 17:33:21,185989854,185997134,185997481,1,24,33,7241,7280,347,,,False
696,2016-10-31 17:33:30,185998501,0,185999668,1,25,33,2294,0,-1127,false_start,,False
697,2016-10-31 17:33:32,186000673,186010387,186010712,1,26,33,9669,9714,325,,,False
698,2016-10-31 17:33:43,186011729,186021247,186021596,1,27,33,9466,9518,349,,,False
699,2016-10-31 17:33:54,186022617,186026394,186026738,1,28,33,3733,3777,344,,,False
700,2016-10-31 17:33:59,186027783,186035608,186035863,1,29,33,7781,7825,255,,,False
701,2016-10-31 17:34:08,186036906,186046360,186046664,1,30,33,9408,9454,304,,,False
702,2016-10-31 17:34:19,186047694,186050368,186050759,1,31,33,2633,2674,391,,,False
703,2016-10-31 17:34:23,186051782,186054812,186055169,1,32,33,2990,3030,357,,,False
704,2016-10-31 17:34:27,186056189,186060798,186061081,1,33,33,4570,4609,283,,,False
705,2016-10-31 17:34:33,186062100,186066987,186067265,1,34,33,4849,4887,278,,,False
706,2016-10-31 17:34:39,186068284,186077853,186078140,1,35,33,9549,9569,287,,,False
707,2016-10-31 17:34:50,186079148,186081838,186082220,1,36,33,2680,2690,382,,,False
708,2016-10-31 17:34:54,186083228,186090894,186091205,1,37,33,7653,7666,311,,,False
709,2016-10-31 17:35:03,186092213,186101689,186102059,1,38,33,9435,9476,370,,,False
710,2016-10-31 17:35:14,186103071,186106101,186106470,1,39,33,2993,3030,369,,,False
711,2016-10-31 17:35:18,186107486,186115881,186116192,1,40,33,8348,8395,311,,,False
712,2016-10-31 17:35:28,186117211,0,186122748,1,41,33,9514,0,-3977,false_start,,False
713,2016-10-31 17:35:35,186123752,186127065,186127500,1,42,33,3273,3313,435,,,False
714,2016-11-01 14:43:31,234056246,234062840,234063093,1,0,41,6576,6594,253,,,False
715,2016-11-01 14:43:39,234064101,234068627,234069162,1,1,41,4511,4526,535,minor_lapse,,False
716,2016-11-01 14:43:45,234070171,234076459,234077064,1,2,41,6245,6288,605,minor_lapse,,False
717,2016-11-01 14:43:53,234078084,234083962,234084290,1,3,41,5827,5878,328,,,False
718,2016-11-01 14:44:00,234085300,234090685,234090963,1,4,41,5368,5385,278,,,False
719,2016-11-01 14:44:07,234091971,234095915,234096261,1,5,41,3929,3944,346,,,False
720,2016-11-01 14:44:12,234097269,234104085,234104411,1,6,41,6800,6816,326,,,False
721,2016-11-01 14:44:21,234105419,234108114,234108416,1,7,41,2681,2695,302,,,False
722,2016-11-01 14:44:25,234109424,234114506,234114801,1,8,41,5061,5082,295,,,False
723,2016-11-01 14:44:31,234115814,234123693,234123971,1,9,41,7860,7879,278,,,False
724,2016-11-01 14:44:40,234124979,234133553,234133841,1,10,41,8559,8574,288,,,False
725,2016-11-01 14:44:50,234134877,234142548,234142879,1,11,41,7651,7671,331,,,False
726,2016-11-01 14:44:59,234143887,234152523,234152864,1,12,41,8622,8636,341,,,False
727,2016-11-01 14:45:09,234153871,234161804,234162075,1,13,41,7914,7933,271,,,False
728,2016-11-01 14:45:18,234163084,0,234164357,1,14,41,7907,0,-6634,false_start,,False
729,2016-11-01 14:45:21,234165361,234169392,234169686,1,15,41,4013,4031,294,,,False
730,2016-11-01 14:45:26,234170695,0,234174432,1,16,41,7016,0,-3279,false_start,,False
731,2016-11-01 14:45:31,234175437,234184195,234184500,1,17,41,8746,8758,305,,,False
732,2016-11-01 14:45:41,234185508,234188548,234188876,1,18,41,3026,3040,328,,,False
733,2016-11-01 14:45:45,234189883,234197553,234197879,1,19,41,7651,7670,326,,,False
734,2016-11-01 14:45:54,234198888,234201050,234201407,1,20,41,2149,2162,357,,,False
735,2016-11-01 14:45:58,234202415,234205719,234206004,1,21,41,3289,3304,285,,,False
736,2016-11-01 14:46:02,234207012,234216275,234216633,1,22,41,9250,9263,358,,,False
737,2016-11-01 14:46:13,234217642,234219894,234220350,1,23,41,2240,2252,456,,,False
738,2016-11-01 14:46:17,234221358,234223378,234223721,1,24,41,2007,2020,343,,,False
739,2016-11-01 14:46:20,234224740,234227992,234228235,1,25,41,3241,3252,243,,,False
740,2016-11-01 14:46:24,234229244,234237685,234237966,1,26,41,8388,8441,281,,,False
741,2016-11-01 14:46:34,234239002,234247103,234247349,1,27,41,8084,8101,246,,,False
742,2016-11-01 14:46:44,234248368,234256306,234256563,1,28,41,7891,7938,257,,,False
743,2016-11-01 14:46:53,234257593,234259611,234260106,1,29,41,2004,2018,495,,,False
744,2016-11-01 14:46:56,234261115,234266933,234267207,1,30,41,5800,5818,274,,,False
745,2016-11-01 14:47:03,234268216,234277312,234277637,1,31,41,9040,9096,325,,,False
746,2016-11-01 14:47:14,234278668,0,234280744,1,32,41,4496,0,-2420,false_start,,False
747,2016-11-01 14:47:17,234281749,234287092,234287393,1,33,41,5302,5343,301,,,False
748,2016-11-01 14:47:24,234288408,234295571,234295970,1,34,41,7118,7163,399,,,False
749,2016-11-01 14:47:32,234296988,234299835,234300191,1,35,41,2801,2847,356,,,False
750,2016-11-01 14:47:36,234301202,234307726,234308035,1,36,41,6478,6524,309,,,False
751,2016-11-01 14:47:44,234309051,234313644,234314002,1,37,41,4549,4593,358,,,False
752,2016-11-01 14:47:50,234315030,234321637,234321942,1,38,41,6589,6607,305,,,False
753,2016-11-01 14:47:58,234322950,234328280,234328633,1,39,41,5319,5330,353,,,False
754,2016-11-01 14:48:05,234329650,234333805,234334260,1,40,41,4115,4155,455,,,False
755,2016-11-01 14:48:10,234335277,234343145,234343394,1,41,41,7854,7868,249,,,False
756,2016-11-01 14:48:20,234344402,234347596,234347941,1,42,41,3148,3194,345,,,False
757,2016-11-01 14:48:24,234348955,234353225,234353534,1,43,41,4257,4270,309,,,False
758,2016-11-01 14:48:30,234354564,234357636,234357950,1,44,41,3024,3072,314,,,False
759,2016-11-06 12:06:52,51236123,51246126,51246456,1,0,78,9988,10003,330,,,False
760,2016-11-06 12:07:03,51247481,51256744,51257059,1,1,78,9248,9263,315,,,False
761,2016-11-06 12:07:21,51258067,51265407,51265689,1,2,78,7319,7340,282,,,False
762,2016-11-06 12:07:29,51266723,51270183,51270503,1,3,78,3447,3460,320,,,False
763,2016-11-06 12:07:34,51271511,51277558,51277869,1,4,78,6031,6047,311,,,False
764,2016-11-06 12:07:42,51278876,51284411,51284730,1,5,78,5519,5535,319,,,False
765,2016-11-06 12:07:48,51285738,51289697,51290039,1,6,78,3945,3959,342,,,False
766,2016-11-06 12:07:54,51291047,51296834,51297174,1,7,78,5773,5787,340,,,False
767,2016-11-06 12:08:01,51298182,51303192,51303525,1,8,78,4998,5010,333,,,False
768,2016-11-06 12:08:07,51304550,51306855,51307284,1,9,78,2228,2305,429,,,False
769,2016-11-06 12:08:11,51308310,51314146,51314476,1,10,78,5810,5836,330,,,False
770,2016-11-06 12:08:18,51315502,51323072,51323443,1,11,78,7553,7570,371,,,False
771,2016-11-06 12:08:27,51324451,51330828,51331199,1,12,78,6328,6377,371,,,False
772,2016-11-06 12:08:35,51332222,51339147,51339465,1,13,78,6866,6925,318,,,False
773,2016-11-06 12:08:43,51340478,51344945,51345362,1,14,78,4451,4467,417,,,False
774,2016-11-06 12:08:49,51346370,51352192,51352540,1,15,78,5766,5822,348,,,False
775,2016-11-06 12:08:56,51353550,51360245,51360666,1,16,78,6645,6695,421,,,False
776,2016-11-06 12:09:04,51361688,51366332,51366982,1,17,78,4597,4644,650,minor_lapse,,False
777,2016-11-06 12:09:11,51368004,51371696,51372077,1,18,78,3629,3692,381,,,False
778,2016-11-06 12:09:16,51373094,51378580,51378906,1,19,78,5471,5486,326,,,False
779,2016-11-06 12:09:23,51379914,51383096,51383349,1,20,78,3118,3182,253,,,False
780,2016-11-06 12:09:27,51384373,51392889,51393205,1,21,78,8454,8516,316,,,False
781,2016-11-06 12:09:37,51394213,51402888,51403273,1,22,78,8612,8675,385,,,False
782,2016-11-06 12:09:47,51404295,51411633,51411977,1,23,78,7298,7338,344,,,False
783,2016-11-06 12:09:56,51413001,51419116,51419540,1,24,78,6056,6115,424,,,False
784,2016-11-06 12:10:03,51420562,51426893,51427219,1,25,78,6272,6331,326,,,False
785,2016-11-06 12:10:11,51428249,51431202,51431688,1,26,78,2894,2953,486,,,False
786,2016-11-06 12:10:15,51432707,51440299,51440729,1,27,78,7575,7592,430,,,False
787,2016-11-06 12:10:25,51441750,0,51445100,1,28,78,9693,0,-6343,false_start,,False
788,2016-11-06 12:10:29,51446105,51449283,51449674,1,29,78,3133,3178,391,,,False
789,2016-11-06 12:10:33,51450692,51452893,51453290,1,30,78,2190,2201,397,,,False
790,2016-11-06 12:10:37,51454297,51458564,51458855,1,31,78,4256,4267,291,,,False
791,2016-11-06 12:10:43,51459864,51465235,51465528,1,32,78,5359,5371,293,,,False
792,2016-11-06 12:10:49,51466536,51471617,51471928,1,33,78,5034,5081,311,,,False
793,2016-11-06 12:10:56,51472955,51480799,51481111,1,34,78,7784,7844,312,,,False
794,2016-11-06 12:11:05,51482129,51486848,51487173,1,35,78,4658,4719,325,,,False
795,2016-11-06 12:11:11,51488196,51494408,51494714,1,36,78,6154,6212,306,,,False
796,2016-11-06 12:11:19,51495751,51504269,51504615,1,37,78,8474,8518,346,,,False
797,2016-11-06 12:11:28,51505642,51513467,51513764,1,38,78,7792,7825,297,,,False
798,2016-11-06 12:11:38,51514772,51524037,51524377,1,39,78,9249,9265,340,,,False
799,2016-11-06 12:11:48,51525400,51532075,51532422,1,40,78,6613,6675,347,,,False
800,2016-11-06 12:11:56,51533441,51537985,51538333,1,41,78,4534,4544,348,,,False
801,2016-10-31 07:24:08,159571592,159578114,159578494,1,0,28,6478,6522,380,,,False
802,2016-10-31 07:24:16,159579515,159581870,159582204,1,1,28,2312,2355,334,,,False
803,2016-10-31 07:24:19,159583223,159588391,159588747,1,2,28,5124,5168,356,,,False
804,2016-10-31 07:24:26,159589765,159593773,159594074,1,3,28,3957,4008,301,,,False
805,2016-10-31 07:24:31,159595085,159605021,159605316,1,4,28,9917,9936,295,,,False
806,2016-10-31 07:24:42,159606350,159611710,159611982,1,5,28,5345,5360,272,,,False
807,2016-10-31 07:24:49,159613006,159620469,159620773,1,6,28,7412,7463,304,,,False
808,2016-10-31 07:24:58,159621784,159629413,159629683,1,7,28,7613,7629,270,,,False
809,2016-10-31 07:25:07,159630691,159636856,159637149,1,8,28,6121,6165,293,,,False
810,2016-10-31 07:25:14,159638176,159642047,159642380,1,9,28,3824,3871,333,,,False
811,2016-10-31 07:25:19,159643401,159648551,159648799,1,10,28,5104,5150,248,,,False
812,2016-10-31 07:25:26,159649821,159656627,159656901,1,11,28,6760,6806,274,,,False
813,2016-10-31 07:25:34,159657923,0,159659489,1,12,28,9144,0,-7578,false_start,,False
814,2016-10-31 07:25:36,159660493,159666391,159666817,1,13,28,5852,5898,426,,,False
815,2016-10-31 07:25:44,159667836,159676893,159677184,1,14,28,9011,9057,291,,,False
816,2016-10-31 07:25:54,159678204,159680516,159680889,1,15,28,2271,2312,373,,,False
817,2016-10-31 07:25:58,159681910,159686131,159686755,1,16,28,4177,4221,624,minor_lapse,,False
818,2016-10-31 07:26:04,159687778,159692472,159692779,1,17,28,4647,4694,307,,,False
819,2016-10-31 07:26:10,159693801,159698143,159698442,1,18,28,4300,4342,299,,,False
820,2016-10-31 07:26:15,159699461,0,159708689,1,19,28,9256,0,-28,false_start,,False
821,2016-10-31 07:26:26,159709704,159715757,159716169,1,20,28,5993,6053,412,,,False
822,2016-10-31 07:26:33,159717192,159720810,159721301,1,21,28,3574,3618,491,,,False
823,2016-10-31 07:26:38,159722324,159731446,159731696,1,22,28,9078,9122,250,,,False
824,2016-10-31 07:26:49,159732715,0,159733470,1,23,28,8375,0,-7620,false_start,,False
825,2016-10-31 07:26:50,159734474,159740514,159740841,1,24,28,5993,6040,327,,,False
826,2016-10-31 07:26:58,159741867,159751887,159752180,1,25,28,9967,10020,293,,,False
827,2016-10-31 07:27:09,159753199,159760051,159760334,1,26,28,6806,6852,283,,,False
828,2016-10-31 07:27:17,159761355,159766176,159766483,1,27,28,4767,4821,307,,,False
829,2016-10-31 07:27:23,159767490,159771111,159771452,1,28,28,3582,3621,341,,,False
830,2016-10-31 07:27:28,159772473,159776983,159777347,1,29,28,4478,4510,364,,,False
831,2016-10-31 07:27:34,159778367,159782213,159782531,1,30,28,3794,3846,318,,,False
832,2016-10-31 07:27:40,159783554,159787379,159787723,1,31,28,3809,3825,344,,,False
833,2016-10-31 07:27:45,159788731,159790789,159791149,1,32,28,2044,2058,360,,,False
834,2016-10-31 07:27:48,159792158,159799332,159799653,1,33,28,7155,7174,321,,,False
835,2016-10-31 07:27:57,159800661,159804808,159805450,1,34,28,4105,4147,642,minor_lapse,,False
836,2016-10-31 07:28:02,159806470,159816410,159816754,1,35,28,9893,9940,344,,,False
837,2016-10-31 07:28:14,159817786,159824982,159825311,1,36,28,7152,7196,329,,,False
838,2016-10-31 07:28:22,159826333,159830415,159830779,1,37,28,4037,4082,364,,,False
839,2016-10-31 07:28:28,159831813,159839333,159839634,1,38,28,7474,7520,301,,,False
840,2016-10-31 07:28:37,159840658,159845316,159845643,1,39,28,4615,4658,327,,,False
841,2016-10-31 07:28:43,159846683,159854412,159854801,1,40,28,7680,7729,389,,,False
842,2016-10-31 07:28:51,159855824,159862457,159862939,1,41,28,6586,6633,482,,,False
843,2016-10-31 07:28:59,159863957,159872859,159873159,1,42,28,8852,8902,300,,,False
844,2016-11-05 17:11:05,7902076,7907099,7907350,1,0,74,4932,5023,251,,,False
845,2016-11-05 17:11:11,7908360,7911947,7912223,1,1,74,3533,3587,276,,,False
846,2016-11-05 17:11:16,7913262,7920123,7920407,1,2,74,6802,6861,284,,,False
847,2016-11-05 17:11:24,7921419,7923605,7924034,1,3,74,2167,2186,429,,,False
848,2016-11-05 17:11:28,7925054,7931953,7932250,1,4,74,6883,6899,297,,,False
849,2016-11-05 17:11:36,7933267,7935522,7935885,1,5,74,2216,2255,363,,,False
850,2016-11-05 17:11:40,7936929,7940127,7940388,1,6,74,3181,3198,261,,,False
851,2016-11-05 17:11:44,7941414,7949295,7949603,1,7,74,7871,7881,308,,,False
852,2016-11-05 17:11:53,7950612,7955993,7956531,1,8,74,5370,5381,538,minor_lapse,,False
853,2016-11-05 17:12:00,7957540,7961413,7961752,1,9,74,3821,3873,339,,,False
854,2016-11-05 17:12:05,7962773,7971241,7971555,1,10,74,8449,8468,314,,,False
855,2016-11-05 17:12:15,7972586,7975672,7976005,1,11,74,3039,3086,333,,,False
856,2016-11-05 17:12:20,7977014,0,7980358,1,12,74,7262,0,-3918,false_start,,False
857,2016-11-05 17:12:24,7981384,7988156,7988460,1,13,74,6717,6772,304,,,False
858,2016-11-05 17:12:32,7989485,7999023,7999291,1,14,74,9474,9538,268,,,False
859,2016-11-05 17:12:43,8000313,8004615,8004983,1,15,74,4247,4302,368,,,False
860,2016-11-05 17:12:49,8006009,8012109,8012433,1,16,74,6046,6100,324,,,False
861,2016-11-05 17:12:56,8013446,8023303,8023603,1,17,74,9836,9857,300,,,False
862,2016-11-05 17:13:07,8024612,8029798,8030077,1,18,74,5172,5186,279,,,False
863,2016-11-05 17:13:14,8031085,8036828,8037132,1,19,74,5661,5743,304,,,False
864,2016-11-05 17:13:21,8038155,8043562,8043879,1,20,74,5389,5407,317,,,False
865,2016-11-05 17:13:28,8044888,8046960,8047275,1,21,74,2058,2072,315,,,False
866,2016-11-05 17:13:31,8048302,8054111,8054427,1,22,74,5757,5809,316,,,False
867,2016-11-05 17:13:38,8055440,8063052,8063345,1,23,74,7591,7612,293,,,False
868,2016-11-05 17:13:47,8064355,8071074,8071369,1,24,74,6701,6719,295,,,False
869,2016-11-05 17:13:55,8072378,8076259,8076623,1,25,74,3837,3881,364,,,False
870,2016-11-05 17:14:00,8077631,8086003,8086305,1,26,74,8356,8372,302,,,False
871,2016-11-05 17:14:10,8087335,8093066,8093434,1,27,74,5670,5731,368,,,False
872,2016-11-05 17:14:17,8094459,8097377,8097751,1,28,74,2874,2918,374,,,False
873,2016-11-05 17:14:21,8098779,8108114,8108415,1,29,74,9290,9335,301,,,False
874,2016-11-05 17:14:32,8109436,8113721,8114155,1,30,74,4268,4285,434,,,False
875,2016-11-05 17:14:38,8115164,0,8117385,1,31,74,9747,0,-7526,false_start,,False
876,2016-11-05 17:14:41,8118396,8126156,8126462,1,32,74,7696,7760,306,,,False
877,2016-11-05 17:14:50,8127485,8130520,8131010,1,33,74,2994,3035,490,,,False
878,2016-11-05 17:14:55,8132031,8139799,8140062,1,34,74,7751,7768,263,,,False
879,2016-11-05 17:15:04,8141071,8146688,8146975,1,35,74,5601,5617,287,,,False
880,2016-11-05 17:15:11,8147983,8157979,8158315,1,36,74,9977,9996,336,,,False
881,2016-11-05 17:15:22,8159323,8168490,8168772,1,37,74,9145,9167,282,,,False
882,2016-11-05 17:15:32,8169780,8176127,8176408,1,38,74,6329,6347,281,,,False
883,2016-11-05 17:15:40,8177417,8185262,8185575,1,39,74,7826,7845,313,,,False
884,2016-11-05 17:15:49,8186584,8191103,8191367,1,40,74,4503,4519,264,,,False
885,2016-11-05 17:15:55,8192374,8202124,8202491,1,41,74,9730,9750,367,,,False
886,2016-10-31 13:23:53,176836602,176844808,176845132,1,0,31,8135,8206,324,,,False
887,2016-10-31 13:24:02,176846150,176848549,176848835,1,1,31,2388,2399,286,,,False
888,2016-10-31 13:24:06,176849843,176858500,176858796,1,2,31,8639,8657,296,,,False
889,2016-10-31 13:24:16,176859819,176862392,176862767,1,3,31,2559,2573,375,,,False
890,2016-10-31 13:24:20,176863775,176871224,176871619,1,4,31,7408,7449,395,,,False
891,2016-10-31 13:24:29,176872640,176881688,176882014,1,5,31,9002,9048,326,,,False
892,2016-10-31 13:24:39,176883030,176885531,176885870,1,6,31,2490,2501,339,,,False
893,2016-10-31 13:24:43,176886878,176891437,176891750,1,7,31,4516,4559,313,,,False
894,2016-10-31 13:24:49,176892769,176901237,176901560,1,8,31,8425,8468,323,,,False
895,2016-10-31 13:24:59,176902581,176911990,176912330,1,9,31,9393,9409,340,,,False
896,2016-10-31 13:25:09,176913339,176918614,176918929,1,10,31,5208,5275,315,,,False
897,2016-10-31 13:25:16,176919971,176923661,176923973,1,11,31,3649,3690,312,,,False
898,2016-10-31 13:25:21,176924995,176927656,176927943,1,12,31,2646,2661,287,,,False
899,2016-10-31 13:25:25,176928951,176936945,176937240,1,13,31,7979,7994,295,,,False
900,2016-10-31 13:25:34,176938281,176946341,176946615,1,14,31,8023,8060,274,,,False
901,2016-10-31 13:25:44,176947631,176952847,176953188,1,15,31,5172,5216,341,,,False
902,2016-10-31 13:25:50,176954209,176957109,176957440,1,16,31,2859,2900,331,,,False
903,2016-10-31 13:25:55,176958462,176960770,176961084,1,17,31,2295,2308,314,,,False
904,2016-10-31 13:25:58,176962097,176965675,176965998,1,18,31,3535,3578,323,,,False
905,2016-10-31 13:26:03,176967030,176973706,176973974,1,19,31,6660,6676,268,,,False
906,2016-10-31 13:26:11,176974982,176978553,176978881,1,20,31,3531,3571,328,,,False
907,2016-10-31 13:26:16,176979900,176988085,176988380,1,21,31,8140,8185,295,,,False
908,2016-10-31 13:26:26,176989399,176998315,176998626,1,22,31,8875,8916,311,,,False
909,2016-10-31 13:26:36,176999647,177007094,177007420,1,23,31,7399,7447,326,,,False
910,2016-10-31 13:26:45,177008440,177015844,177016145,1,24,31,7378,7404,301,,,False
911,2016-10-31 13:26:53,177017161,177020899,177021191,1,25,31,3666,3738,292,,,False
912,2016-10-31 13:26:58,177022206,177029474,177029755,1,26,31,7220,7268,281,,,False
913,2016-10-31 13:27:07,177030771,177033069,177033372,1,27,31,2285,2298,303,,,False
914,2016-10-31 13:27:11,177034380,177042511,177042829,1,28,31,8110,8131,318,,,False
915,2016-10-31 13:27:20,177043837,177049798,177050090,1,29,31,5917,5961,292,,,False
916,2016-10-31 13:27:27,177051110,177058141,177058499,1,30,31,6985,7031,358,,,False
917,2016-10-31 13:27:36,177059519,177063399,177063701,1,31,31,3853,3880,302,,,False
918,2016-10-31 13:27:41,177064710,177068634,177068946,1,32,31,3880,3924,312,,,False
919,2016-10-31 13:27:46,177069968,177072513,177072861,1,33,31,2502,2545,348,,,False
920,2016-10-31 13:27:50,177073882,177077617,177077889,1,34,31,3691,3735,272,,,False
921,2016-10-31 13:27:55,177078910,177088093,177088370,1,35,31,9163,9183,277,,,False
922,2016-10-31 13:28:06,177089395,177095519,177095852,1,36,31,6081,6124,333,,,False
923,2016-10-31 13:28:13,177096871,177101755,177102079,1,37,31,4840,4884,324,,,False
924,2016-10-31 13:28:19,177103099,177111007,177111287,1,38,31,7861,7908,280,,,False
925,2016-10-31 13:28:28,177112313,177114676,177115061,1,39,31,2306,2363,385,,,False
926,2016-10-31 13:28:32,177116082,177121424,177121742,1,40,31,5303,5342,318,,,False
927,2016-10-31 13:28:39,177122762,177132523,177132818,1,41,31,9716,9761,295,,,False
928,2016-10-31 13:28:50,177133839,177143417,177143687,1,42,31,9513,9578,270,,,False
929,2016-10-31 23:44:23,200153450,200157549,200158020,1,0,37,4008,4099,471,,,False
930,2016-10-31 23:44:29,200159034,200161846,200162281,1,1,37,2770,2812,435,,,False
931,2016-10-31 23:44:33,200163300,200172600,200172944,1,2,37,9251,9300,344,,,False
932,2016-10-31 23:44:43,200173966,200183511,200183853,1,3,37,9502,9545,342,,,False
933,2016-10-31 23:44:54,200184886,200188420,200188801,1,4,37,3493,3534,381,,,False
934,2016-10-31 23:44:59,200189820,200193511,200193855,1,5,37,3650,3691,344,,,False
935,2016-10-31 23:45:04,200194882,200197185,200197644,1,6,37,2260,2303,459,,,False
936,2016-10-31 23:45:08,200198651,200202522,200202849,1,7,37,3833,3871,327,,,False
937,2016-10-31 23:45:13,200203862,200207915,200208235,1,8,37,4014,4053,320,,,False
938,2016-10-31 23:45:19,200209250,200215533,200215846,1,9,37,6268,6283,313,,,False
939,2016-10-31 23:45:26,200216854,200220846,200221241,1,10,37,3950,3992,395,,,False
940,2016-10-31 23:45:32,200222266,200229303,200229582,1,11,37,6992,7037,279,,,False
941,2016-10-31 23:45:40,200230608,200238483,200238781,1,12,37,7834,7875,298,,,False
942,2016-10-31 23:45:49,200239802,200245219,200245543,1,13,37,5402,5417,324,,,False
943,2016-10-31 23:45:56,200246562,200251165,200251620,1,14,37,4558,4603,455,,,False
944,2016-10-31 23:46:02,200252642,200261745,200262106,1,15,37,9056,9103,361,,,False
945,2016-10-31 23:46:13,200263129,200271689,200272031,1,16,37,8541,8560,342,,,False
946,2016-10-31 23:46:23,200273054,200281125,200281387,1,17,37,8029,8071,262,,,False
947,2016-10-31 23:46:32,200282405,200289628,200289994,1,18,37,7188,7223,366,,,False
948,2016-10-31 23:46:41,200291028,200295556,200295910,1,19,37,4485,4528,354,,,False
949,2016-10-31 23:46:46,200296930,200304267,200304757,1,20,37,7293,7337,490,,,False
950,2016-10-31 23:46:55,200305776,200312385,200312786,1,21,37,6565,6609,401,,,False
951,2016-10-31 23:47:03,200313807,200322809,200323183,1,22,37,8940,9002,374,,,False
952,2016-10-31 23:47:14,200324203,200327058,200327436,1,23,37,2812,2855,378,,,False
953,2016-10-31 23:47:18,200328467,200333612,200334069,1,24,37,5103,5145,457,,,False
954,2016-10-31 23:47:25,200335092,200344412,200344954,1,25,37,9276,9320,542,minor_lapse,,False
955,2016-10-31 23:47:35,200345976,200349917,200350265,1,26,37,3896,3941,348,,,False
956,2016-10-31 23:47:41,200351284,200354272,200354744,1,27,37,2947,2988,472,,,False
957,2016-10-31 23:47:45,200355770,200360691,200361142,1,28,37,4878,4921,451,,,False
958,2016-10-31 23:47:52,200362160,200365028,200365412,1,29,37,2828,2868,384,,,False
959,2016-10-31 23:47:56,200366435,200369128,200369422,1,30,37,2652,2693,294,,,False
960,2016-10-31 23:48:00,200370441,200379065,200379348,1,31,37,8605,8624,283,,,False
961,2016-10-31 23:48:10,200380356,0,200388335,1,32,37,9207,0,-1228,false_start,,False
962,2016-10-31 23:48:19,200389339,200395031,200395322,1,33,37,5681,5692,291,,,False
963,2016-10-31 23:48:26,200396340,200402886,200403201,1,34,37,6501,6546,315,,,False
964,2016-10-31 23:48:34,200404221,200408860,200409346,1,35,37,4594,4639,486,,,False
965,2016-10-31 23:48:40,200410366,200417582,200417912,1,36,37,7171,7216,330,,,False
966,2016-10-31 23:48:48,200418932,200427469,200427856,1,37,37,8489,8537,387,,,False
967,2016-10-31 23:48:58,200428878,0,200433472,1,38,37,7958,0,-3364,false_start,,False
968,2016-10-31 23:49:04,200434483,200441841,200442581,1,39,37,7315,7358,740,minor_lapse,,False
969,2016-10-31 23:49:13,200443589,200453587,200454005,1,40,37,9954,9998,418,,,False
970,2016-11-05 20:55:11,15456543,15463175,15463430,1,0,76,6616,6632,255,,,False
971,2016-11-05 20:55:20,15464455,15473581,15473929,1,1,76,9077,9126,348,,,False
972,2016-11-05 20:55:30,15474963,15483819,15484202,1,2,76,8805,8856,383,,,False
973,2016-11-05 20:55:40,15485214,15492363,15492684,1,3,76,7136,7149,321,,,False
974,2016-11-05 20:55:49,15493718,15502865,15503176,1,4,76,9089,9147,311,,,False
975,2016-11-05 20:55:59,15504194,15507466,15507815,1,5,76,3219,3272,349,,,False
976,2016-11-05 20:56:04,15508837,15514526,15514882,1,6,76,5634,5689,356,,,False
977,2016-11-05 20:56:11,15515905,15525850,15526163,1,7,76,9926,9945,313,,,False
978,2016-11-05 20:56:22,15527187,15531653,15532054,1,8,76,4426,4466,401,,,False
979,2016-11-05 20:56:28,15533079,15541744,15542098,1,9,76,8621,8665,354,,,False
980,2016-11-05 20:56:38,15543118,15550884,15551329,1,10,76,7721,7766,445,,,False
981,2016-11-05 20:56:48,15552352,15561747,15562042,1,11,76,9334,9395,295,,,False
982,2016-11-05 20:56:58,15563061,15568075,15568366,1,12,76,4965,5014,291,,,False
983,2016-11-05 20:57:05,15569387,15571984,15572330,1,13,76,2545,2597,346,,,False
984,2016-11-05 20:57:08,15573341,15579874,15580185,1,14,76,6507,6533,311,,,False
985,2016-11-05 20:57:16,15581204,0,15585088,1,15,76,5196,0,-1312,false_start,,False
986,2016-11-05 20:57:21,15586098,15591045,15591395,1,16,76,4886,4947,350,,,False
987,2016-11-05 20:57:28,15592426,15596315,15596696,1,17,76,3837,3889,381,,,False
988,2016-11-05 20:57:33,15597726,15606413,15606757,1,18,76,8635,8687,344,,,False
989,2016-11-05 20:57:43,15607780,15616168,15616508,1,19,76,8334,8388,340,,,False
990,2016-11-05 20:57:53,15617524,15620449,15620842,1,20,76,2877,2925,393,,,False
991,2016-11-05 20:57:57,15621895,15626703,15627083,1,21,76,4765,4808,380,,,False
992,2016-11-05 20:58:03,15628110,15635416,15635831,1,22,76,7242,7306,415,,,False
993,2016-11-05 20:58:12,15636867,15643830,15644174,1,23,76,6913,6963,344,,,False
994,2016-11-05 20:58:20,15645184,15652807,15653120,1,24,76,7556,7623,313,,,False
995,2016-11-05 20:58:29,15654155,15656587,15656949,1,25,76,2418,2432,362,,,False
996,2016-11-05 20:58:33,15657973,15665779,15666051,1,26,76,7745,7806,272,,,False
997,2016-11-05 20:58:42,15667063,15672123,15672497,1,27,76,5016,5060,374,,,False
998,2016-11-05 20:58:49,15673518,15683297,15683651,1,28,76,9761,9779,354,,,False
999,2016-11-05 20:59:00,15684658,15692441,15692921,1,29,76,7726,7783,480,,,False
1000,2016-11-05 20:59:09,15693942,15701435,15701833,1,30,76,7450,7493,398,,,False
1001,2016-11-05 20:59:18,15702858,0,15706241,1,31,76,7879,0,-4496,false_start,,False
1002,2016-11-05 20:59:22,15707257,15714485,15714794,1,32,76,7176,7228,309,,,False
1003,2016-11-05 20:59:31,15715836,15724973,15725277,1,33,76,9083,9137,304,,,False
1004,2016-11-05 20:59:41,15726305,15729577,15729917,1,34,76,3227,3272,340,,,False
1005,2016-11-05 20:59:46,15730937,15733117,15733517,1,35,76,2167,2180,400,,,False
1006,2016-11-05 20:59:50,15734536,15742769,15743104,1,36,76,8177,8233,335,,,False
1007,2016-11-05 20:59:59,15744126,15753326,15753621,1,37,76,9147,9200,295,,,False
1008,2016-11-05 21:00:10,15754632,15760811,15761080,1,38,76,6129,6179,269,,,False
1009,2016-11-02 22:41:47,306853324,306855525,306855858,1,0,53,2186,2201,333,,,False
1010,2016-11-02 22:41:51,306856867,306865767,306866173,1,1,53,8879,8900,406,,,False
1011,2016-11-02 22:42:01,306867184,306877130,306877469,1,2,53,9924,9946,339,,,False
1012,2016-11-02 22:42:12,306878477,306883636,306883976,1,3,53,5142,5159,340,,,False
1013,2016-11-02 22:42:19,306884984,306893491,306893845,1,4,53,8442,8507,354,,,False
1014,2016-11-02 22:42:29,306894852,306904346,306904650,1,5,53,9482,9494,304,,,False
1015,2016-11-02 22:42:39,306905657,306908507,306909892,1,6,53,2797,2850,1385,minor_lapse,,False
1016,2016-11-02 22:42:45,306910916,306913178,306913570,1,7,53,2219,2262,392,,,False
1017,2016-11-02 22:42:48,306914589,306922643,306922959,1,8,53,8042,8054,316,,,False
1018,2016-11-02 22:42:58,306923967,306927223,306927556,1,9,53,3245,3256,333,,,False
1019,2016-11-02 22:43:02,306928563,306935724,306936111,1,10,53,7144,7161,387,,,False
1020,2016-11-02 22:43:11,306937118,306944747,306945098,1,11,53,7555,7629,351,,,False
1021,2016-11-02 22:43:20,306946129,306950846,306951140,1,12,53,4665,4717,294,,,False
1022,2016-11-02 22:43:26,306952166,306961361,306961731,1,13,53,9141,9195,370,,,False
1023,2016-11-02 22:43:36,306962761,306968566,306968882,1,14,53,5796,5805,316,,,False
1024,2016-11-02 22:43:44,306969906,306972783,306973132,1,15,53,2820,2877,349,,,False
1025,2016-11-02 22:43:48,306974173,306980550,306980922,1,16,53,6362,6377,372,,,False
1026,2016-11-02 22:43:56,306981944,306990895,306991189,1,17,53,8937,8951,294,,,False
1027,2016-11-02 22:44:06,306992197,307000276,307000591,1,18,53,8032,8079,315,,,False
1028,2016-11-02 22:44:15,307001610,307007154,307007509,1,19,53,5496,5544,355,,,False
1029,2016-11-02 22:44:22,307008528,307016210,307016562,1,20,53,7640,7682,352,,,False
1030,2016-11-02 22:44:31,307017591,307022876,307023184,1,21,53,5271,5285,308,,,False
1031,2016-11-02 22:44:38,307024216,307032472,307032747,1,22,53,8196,8256,275,,,False
1032,2016-11-02 22:44:47,307033767,307043056,307043395,1,23,53,9271,9289,339,,,False
1033,2016-11-02 22:44:58,307044416,307053305,307053703,1,24,53,8826,8889,398,,,False
1034,2016-11-02 22:45:08,307054723,307062390,307062828,1,25,53,7628,7667,438,,,False
1035,2016-11-02 22:45:18,307063845,307067038,307067871,1,26,53,3150,3193,833,minor_lapse,,False
1036,2016-11-02 22:45:23,307068892,307071555,307071873,1,27,53,2609,2663,318,,,False
1037,2016-11-02 22:45:27,307072901,307082310,307082564,1,28,53,9345,9409,254,,,False
1038,2016-11-02 22:45:37,307083577,307091217,307091550,1,29,53,7599,7640,333,,,False
1039,2016-11-02 22:45:46,307092579,307101960,307102356,1,30,53,9317,9381,396,,,False
1040,2016-11-02 22:45:57,307103394,307112620,307112903,1,31,53,9178,9226,283,,,False
1041,2016-11-02 22:46:08,307113912,307118416,307118738,1,32,53,4494,4504,322,,,False
1042,2016-11-02 22:46:13,307119760,307126132,307126419,1,33,53,6330,6372,287,,,False
1043,2016-11-02 22:46:21,307127441,307137100,307137416,1,34,53,9610,9659,316,,,False
1044,2016-11-02 22:46:32,307138425,307147807,307148117,1,35,53,9330,9382,310,,,False
1045,2016-11-02 22:46:43,307149149,307151242,307151688,1,36,53,2080,2093,446,,,False
1046,2016-11-02 22:46:46,307152707,307157253,307157636,1,37,53,4502,4546,383,,,False
1047,2016-11-04 19:13:18,410317709,410325308,410325631,1,0,68,7503,7599,323,,,False
1048,2016-11-04 19:13:27,410326660,410335779,410336094,1,1,68,9056,9119,315,,,False
1049,2016-11-04 19:13:37,410337104,410341432,410341755,1,2,68,4296,4328,323,,,False
1050,2016-11-04 19:13:43,410342768,0,410348705,1,3,68,7495,0,-1558,false_start,,False
1051,2016-11-04 19:13:50,410349710,410359507,410359849,1,4,68,9728,9797,342,,,False
1052,2016-11-04 19:14:01,410360858,410364897,410365257,1,5,68,4018,4039,360,,,False
1053,2016-11-04 19:14:06,410366275,410374804,410375160,1,6,68,8478,8529,356,,,False
1054,2016-11-04 19:14:16,410376184,410380261,410380905,1,7,68,4037,4077,644,minor_lapse,,False
1055,2016-11-04 19:14:22,410381922,410391090,410391456,1,8,68,9113,9168,366,,,False
1056,2016-11-04 19:14:33,410392477,410398372,410398701,1,9,68,5851,5895,329,,,False
1057,2016-11-04 19:14:40,410399721,410404253,410404560,1,10,68,4479,4532,307,,,False
1058,2016-11-04 19:14:46,410405594,410414401,410414755,1,11,68,8789,8807,354,,,False
1059,2016-11-04 19:14:56,410415773,410423993,410424329,1,12,68,8178,8220,336,,,False
1060,2016-11-04 19:15:05,410425355,410428589,410428934,1,13,68,3221,3234,345,,,False
1061,2016-11-04 19:15:10,410429944,410439373,410439715,1,14,68,9386,9429,342,,,False
1062,2016-11-04 19:15:21,410440737,410443232,410443645,1,15,68,2453,2495,413,,,False
1063,2016-11-04 19:15:25,410444660,410450515,410450811,1,16,68,5839,5855,296,,,False
1064,2016-11-04 19:15:32,410451836,410456344,410456709,1,17,68,4461,4508,365,,,False
1065,2016-11-04 19:15:38,410457721,410464768,410465047,1,18,68,6981,7047,279,,,False
1066,2016-11-04 19:15:46,410466069,410469850,410470200,1,19,68,3709,3781,350,,,False
1067,2016-11-04 19:15:51,410471220,410479148,410479464,1,20,68,7865,7928,316,,,False
1068,2016-11-04 19:16:01,410480497,410483803,410484176,1,21,68,3285,3306,373,,,False
1069,2016-11-04 19:16:05,410485238,410493737,410494112,1,22,68,8453,8499,375,,,False
1070,2016-11-04 19:16:15,410495134,410505063,410505352,1,23,68,9920,9929,289,,,False
1071,2016-11-04 19:16:26,410506360,410512287,410512598,1,24,68,5883,5927,311,,,False
1072,2016-11-04 19:16:34,410513611,410520909,410521207,1,25,68,7256,7298,298,,,False
1073,2016-11-04 19:16:42,410522230,410526745,410527081,1,26,68,4470,4515,336,,,False
1074,2016-11-04 19:16:48,410528103,410531338,410531642,1,27,68,3211,3235,304,,,False
1075,2016-11-04 19:16:53,410532672,410534849,410535189,1,28,68,2166,2177,340,,,False
1076,2016-11-04 19:16:56,410536210,410538247,410538599,1,29,68,2024,2037,352,,,False
1077,2016-11-04 19:17:00,410539624,410542330,410542733,1,30,68,2663,2706,403,,,False
1078,2016-11-04 19:17:04,410543743,410547922,410548205,1,31,68,4138,4179,283,,,False
1079,2016-11-04 19:17:09,410549231,410558754,410559076,1,32,68,9506,9523,322,,,False
1080,2016-11-04 19:17:20,410560098,410569389,410569692,1,33,68,9235,9291,303,,,False
1081,2016-11-04 19:17:31,410570715,410579293,410579601,1,34,68,8566,8578,308,,,False
1082,2016-11-04 19:17:41,410580609,410585498,410585794,1,35,68,4874,4889,296,,,False
1083,2016-11-04 19:17:47,410586826,410589111,410589417,1,36,68,2273,2285,306,,,False
1084,2016-11-04 19:17:50,410590438,410593522,410593855,1,37,68,3028,3084,333,,,False
1085,2016-11-04 19:17:55,410594878,410597340,410597626,1,38,68,2419,2462,286,,,False
1086,2016-11-04 19:17:59,410598633,410602221,410602505,1,39,68,3545,3588,284,,,False
1087,2016-11-04 19:18:04,410603531,410610184,410610452,1,40,68,6593,6653,268,,,False
1088,2016-11-04 19:18:12,410611497,410617150,410617460,1,41,68,5574,5653,310,,,False
1089,2016-11-02 11:58:29,279800557,279805999,279806279,1,0,48,5426,5442,280,,,False
1090,2016-11-02 11:58:36,279807290,279809700,279810047,1,1,48,2399,2410,347,,,False
1091,2016-11-02 11:58:39,279811066,279816331,279816600,1,2,48,5226,5265,269,,,False
1092,2016-11-02 11:58:46,279817630,0,279822034,1,3,48,6338,0,-1934,false_start,,False
1093,2016-11-02 11:58:51,279823040,279826534,279826827,1,4,48,3473,3494,293,,,False
1094,2016-11-02 11:58:56,279827841,279832112,279832456,1,5,48,4254,4271,344,,,False
1095,2016-11-02 11:59:02,279833463,279842172,279842522,1,6,48,8663,8709,350,,,False
1096,2016-11-02 11:59:12,279843557,279847319,279847691,1,7,48,3718,3762,372,,,False
1097,2016-11-02 11:59:17,279848739,279854024,279854321,1,8,48,5238,5285,297,,,False
1098,2016-11-02 11:59:24,279855333,279857681,279858008,1,9,48,2332,2348,327,,,False
1099,2016-11-02 11:59:27,279859040,279862823,279863143,1,10,48,3769,3783,320,,,False
1100,2016-11-02 11:59:32,279864198,279869009,279869333,1,11,48,4769,4811,324,,,False
1101,2016-11-02 11:59:39,279870353,279874156,279874482,1,12,48,3764,3803,326,,,False
1102,2016-11-02 11:59:44,279875500,279884322,279884565,1,13,48,8813,8822,243,,,False
1103,2016-11-02 11:59:54,279885582,279892003,279892302,1,14,48,6409,6421,299,,,False
1104,2016-11-02 12:00:02,279893310,279899585,279899990,1,15,48,6218,6275,405,,,False
1105,2016-11-02 12:00:09,279901002,279909837,279910135,1,16,48,8772,8835,298,,,False
1106,2016-11-02 12:00:19,279911161,279917229,279917539,1,17,48,6005,6068,310,,,False
1107,2016-11-02 12:00:27,279918557,279925661,279925981,1,18,48,7077,7104,320,,,False
1108,2016-11-02 12:00:35,279927004,279929082,279929434,1,19,48,2064,2078,352,,,False
1109,2016-11-02 12:00:39,279930463,279938606,279938958,1,20,48,8107,8143,352,,,False
1110,2016-11-02 12:00:48,279939982,279946572,279946883,1,21,48,6528,6590,311,,,False
1111,2016-11-02 12:00:56,279947903,279953394,279953718,1,22,48,5433,5491,324,,,False
1112,2016-11-02 12:01:03,279954737,0,279955469,1,23,48,5631,0,-4899,false_start,,False
1113,2016-11-02 12:01:05,279956475,279964848,279965163,1,24,48,8359,8373,315,,,False
1114,2016-11-02 12:01:14,279966170,279973843,279974155,1,25,48,7662,7673,312,,,False
1115,2016-11-02 12:01:23,279975163,279981763,279982078,1,26,48,6537,6600,315,,,False
1116,2016-11-02 12:01:31,279983092,279987946,279988245,1,27,48,4763,4854,299,,,False
1117,2016-11-02 12:01:37,279989255,279996330,279996632,1,28,48,7061,7075,302,,,False
1118,2016-11-02 12:01:46,279997653,280003613,280003908,1,29,48,5899,5960,295,,,False
1119,2016-11-02 12:01:53,280004942,280009437,280009765,1,30,48,4446,4495,328,,,False
1120,2016-11-02 12:01:59,280010802,280014623,280014989,1,31,48,3785,3821,366,,,False
1121,2016-11-02 12:02:04,280016019,280024647,280024920,1,32,48,8610,8628,273,,,False
1122,2016-11-02 12:02:14,280025940,0,280029498,1,33,48,8125,0,-4567,false_start,,False
1123,2016-11-02 12:02:19,280030504,280033512,280033855,1,34,48,2955,3008,343,,,False
1124,2016-11-02 12:02:23,280034877,280043945,280044333,1,35,48,9037,9068,388,,,False
1125,2016-11-02 12:02:34,280045351,280050056,280050470,1,36,48,4651,4705,414,,,False
1126,2016-11-02 12:02:40,280051482,280059339,280059650,1,37,48,7830,7857,311,,,False
1127,2016-11-02 12:02:49,280060696,280068202,280068499,1,38,48,7451,7506,297,,,False
1128,2016-11-02 12:02:58,280069509,280073836,280074127,1,39,48,4270,4327,291,,,False
1129,2016-11-02 12:03:03,280075141,280082602,280082918,1,40,48,7412,7461,316,,,False
1130,2016-11-02 12:03:12,280083954,0,280087208,1,41,48,8970,0,-5716,false_start,,False
1131,2016-11-02 12:03:16,280088222,280094786,280095108,1,42,48,6554,6564,322,,,False
1132,2016-11-02 12:03:24,280096122,280103279,280103605,1,43,48,7094,7157,326,,,False
1133,2016-11-07 12:37:30,100540877,100545217,100545581,1,0,88,4299,4340,364,,,False
1134,2016-11-07 12:37:35,100546611,100550328,100550591,1,1,88,3701,3717,263,,,False
1135,2016-11-07 12:37:40,100551608,100556233,100556959,1,2,88,4555,4625,726,minor_lapse,,False
1136,2016-11-07 12:37:47,100557977,100560728,100561069,1,3,88,2710,2751,341,,,False
1137,2016-11-07 12:37:51,100562078,100571687,100571951,1,4,88,9562,9609,264,,,False
1138,2016-11-07 12:38:02,100572969,100579404,100579669,1,5,88,6381,6435,265,,,False
1139,2016-11-07 12:38:09,100580679,100589934,100590154,1,6,88,9239,9255,220,,,False
1140,2016-11-07 12:38:20,100591174,100599074,100599374,1,7,88,7887,7900,300,,,False
1141,2016-11-07 12:38:29,100600383,100602903,100603278,1,8,88,2505,2520,375,,,False
1142,2016-11-07 12:38:33,100604287,100607737,100608051,1,9,88,3408,3450,314,,,False
1143,2016-11-07 12:38:38,100609071,100613951,100614238,1,10,88,4830,4880,287,,,False
1144,2016-11-07 12:38:44,100615258,0,100618585,1,11,88,3688,0,-361,false_start,,False
1145,2016-11-07 12:38:48,100619590,100627303,100627632,1,12,88,7693,7713,329,,,False
1146,2016-11-07 12:38:57,100628640,100635344,100635653,1,13,88,6687,6704,309,,,False
1147,2016-11-07 12:39:05,100636662,100639600,100639978,1,14,88,2895,2938,378,,,False
1148,2016-11-07 12:39:10,100640998,100650250,100650554,1,15,88,9202,9252,304,,,False
1149,2016-11-07 12:39:20,100651578,100657103,100657392,1,16,88,5508,5525,289,,,False
1150,2016-11-07 12:39:27,100658401,100664617,100664959,1,17,88,6169,6216,342,,,False
1151,2016-11-07 12:39:35,100665979,100671428,100671683,1,18,88,5436,5449,255,,,False
1152,2016-11-07 12:39:41,100672691,100676985,100677281,1,19,88,4277,4294,296,,,False
1153,2016-11-07 12:39:47,100678290,100683317,100683631,1,20,88,4978,5027,314,,,False
1154,2016-11-07 12:39:53,100684649,100689508,100689830,1,21,88,4814,4859,322,,,False
1155,2016-11-07 12:40:00,100690902,100694010,100694336,1,22,88,3054,3108,326,,,False
1156,2016-11-07 12:40:04,100695355,100700989,100701267,1,23,88,5590,5634,278,,,False
1157,2016-11-07 12:40:11,100702284,100706141,100706395,1,24,88,3814,3857,254,,,False
1158,2016-11-07 12:40:16,100707419,100712137,100712407,1,25,88,4706,4718,270,,,False
1159,2016-11-07 12:40:22,100713415,100718954,100719196,1,26,88,5522,5539,242,,,False
1160,2016-11-07 12:40:29,100720204,100727297,100727557,1,27,88,7073,7093,260,,,False
1161,2016-11-07 12:40:37,100728565,100733534,100733834,1,28,88,4923,4969,300,,,False
1162,2016-11-07 12:40:43,100734854,100739283,100739621,1,29,88,4385,4429,338,,,False
1163,2016-11-07 12:40:49,100740646,100744710,100744977,1,30,88,4048,4064,267,,,False
1164,2016-11-07 12:40:55,100745989,100752365,100752675,1,31,88,6329,6376,310,,,False
1165,2016-11-07 12:41:02,100753704,100762450,100762722,1,32,88,8698,8746,272,,,False
1166,2016-11-07 12:41:12,100763734,100768123,100768402,1,33,88,4345,4389,279,,,False
1167,2016-11-07 12:41:18,100769424,100776642,100776921,1,34,88,7164,7218,279,,,False
1168,2016-11-07 12:41:27,100777942,100786594,100786871,1,35,88,8601,8652,277,,,False
1169,2016-11-07 12:41:37,100787891,100794625,100794882,1,36,88,6685,6734,257,,,False
1170,2016-11-07 12:41:45,100795893,100798902,100799315,1,37,88,2968,3009,413,,,False
1171,2016-11-07 12:41:49,100800343,100805491,100805798,1,38,88,5093,5148,307,,,False
1172,2016-11-07 12:41:55,100806809,100809324,100809668,1,39,88,2502,2515,344,,,False
1173,2016-11-07 12:41:59,100810676,100817171,100817523,1,40,88,6446,6495,352,,,False
1174,2016-11-07 12:42:07,100818541,100824958,100825228,1,41,88,6371,6417,270,,,False
1175,2016-11-07 12:42:15,100826248,100836266,100836536,1,42,88,9995,10018,270,,,False
1176,2016-11-07 12:42:26,100837554,100841236,100841554,1,43,88,3667,3682,318,,,False
1177,2016-11-01 11:01:06,222700022,222709212,222709519,1,0,39,9093,9190,307,,,False
1178,2016-11-01 11:01:16,222710534,222719340,222719632,1,1,39,8756,8806,292,,,False
1179,2016-11-01 11:01:26,222720653,222726472,222726768,1,2,39,5770,5819,296,,,False
1180,2016-11-01 11:01:33,222727785,222732649,222732981,1,3,39,4824,4864,332,,,False
1181,2016-11-01 11:01:40,222734001,222740844,222741124,1,4,39,6829,6843,280,,,False
1182,2016-11-01 11:01:48,222742132,222748114,222748425,1,5,39,5939,5982,311,,,False
1183,2016-11-01 11:01:55,222749442,222752759,222753060,1,6,39,3275,3317,301,,,False
1184,2016-11-01 11:02:00,222754080,222761733,222761996,1,7,39,7646,7653,263,,,False
1185,2016-11-01 11:02:09,222763003,222771095,222771395,1,8,39,8075,8092,300,,,False
1186,2016-11-01 11:02:18,222772404,222774732,222775092,1,9,39,2295,2328,360,,,False
1187,2016-11-01 11:02:22,222776109,222784606,222784893,1,10,39,8447,8497,287,,,False
1188,2016-11-01 11:02:31,222785904,222794748,222795056,1,11,39,8799,8844,308,,,False
1189,2016-11-01 11:02:42,222796076,222804013,222804315,1,12,39,7893,7937,302,,,False
1190,2016-11-01 11:02:51,222805333,222813278,222813575,1,13,39,7928,7945,297,,,False
1191,2016-11-01 11:03:00,222814593,222818074,222818433,1,14,39,3410,3481,359,,,False
1192,2016-11-01 11:03:05,222819440,222829272,222829559,1,15,39,9812,9832,287,,,False
1193,2016-11-01 11:03:16,222830578,0,222832255,1,16,39,9373,0,-7696,false_start,,False
1194,2016-11-01 11:03:19,222833261,222838031,222838331,1,17,39,4755,4770,300,,,False
